aX,aY,aZ,gX,gY,gZ
0.681,0.591,1.343,14.404,14.404,11.597
0.667,0.687,1.308,19.775,3.235,19.775
0.490,0.825,1.225,27.771,4.822,36.072
0.283,0.915,1.121,53.528,44.922,57.983
0.194,0.918,1.009,76.599,25.085,30.579
0.153,0.888,0.912,90.088,0.000,9.033
0.098,0.768,0.868,128.845,-23.071,-19.836
0.077,0.613,0.849,168.335,3.113,-27.283
0.161,0.151,0.785,173.767,-4.700,-38.635
0.183,-0.042,0.715,142.822,-88.745,-66.467
0.102,-0.386,0.485,112.244,-117.432,-57.373
-0.000,-0.824,0.306,113.770,-80.444,-40.161
-0.018,-1.282,0.320,122.742,18.005,-23.437
0.027,-1.476,0.369,82.947,9.155,-59.387
0.228,-1.682,0.512,46.509,-39.490,-86.609
0.339,-1.678,0.590,-18.188,-114.319,-109.863
0.415,-1.527,0.652,-38.025,-103.394,-95.947
0.384,-1.457,0.633,-57.312,12.817,-29.541
0.202,-1.322,0.590,-64.819,86.731,7.690
0.140,-1.248,0.496,-97.229,182.312,61.768
0.061,-1.116,0.281,-109.497,188.660,76.599
0.106,-1.025,0.220,-110.718,143.799,72.388
0.288,-0.998,0.220,-104.736,101.868,63.354
0.328,-1.041,0.271,-85.449,29.785,53.650
0.345,-1.113,0.411,-79.285,12.573,53.040
0.327,-1.114,0.485,-76.660,-4.333,58.289
0.301,-0.939,0.597,-77.087,-10.376,63.293
0.323,-0.822,0.615,-84.412,-13.245,77.026
0.327,-0.589,0.615,-89.111,-7.507,85.327
0.255,-0.422,0.630,-87.341,25.818,104.004
0.099,-0.019,0.695,-81.299,52.307,111.389
0.098,0.144,0.727,-76.111,91.797,109.009
0.232,0.334,0.773,-77.148,85.937,97.534
0.271,0.447,0.803,-72.327,35.889,75.195
0.302,0.723,0.856,-68.054,15.930,69.092
0.295,0.835,0.861,-56.274,18.311,57.556
0.232,1.017,0.898,-46.875,34.241,47.119
0.218,1.073,0.930,-24.719,55.359,14.465
0.276,1.026,0.985,-16.052,52.246,-3.723
0.339,0.964,1.006,-4.883,16.541,-31.860
0.390,0.906,1.054,2.686,-5.249,-38.635
0.395,0.878,1.085,25.757,-26.062,-44.556
0.439,0.736,1.156,36.804,-26.611,-45.715
0.462,0.630,1.191,44.556,-23.865,-41.260
0.478,0.437,1.236,40.771,-23.315,-35.400
0.491,0.324,1.223,26.672,-21.973,-26.306
0.491,0.292,1.192,19.653,-21.301,-24.597
0.496,0.228,1.103,9.949,-18.555,-23.254
0.505,0.180,1.059,7.324,-15.625,-22.034
0.529,0.078,0.995,5.249,-11.658,-15.564
0.533,0.054,0.972,5.066,-13.977,-12.329
0.503,0.057,0.916,3.845,-21.179,-10.681
0.478,0.051,0.894,3.540,-19.409,-10.864
0.453,0.037,0.882,4.822,-3.723,-7.019
0.426,0.012,0.862,5.127,4.517,-4.639
0.442,-0.008,0.837,4.517,10.315,-3.174
0.444,-0.013,0.842,4.456,6.958,-2.197
0.422,-0.005,0.872,5.127,-3.235,-1.770
0.414,-0.002,0.891,5.249,-5.371,-2.747
0.401,-0.003,0.914,3.296,-2.563,-3.479
0.398,-0.004,0.914,1.831,5.310,-2.136
0.392,0.009,0.910,1.831,8.789,-2.380
0.402,0.011,0.902,1.587,10.010,-3.967
0.427,0.012,0.898,1.892,3.174,-8.545
0.434,0.006,0.906,3.174,-4.700,-9.888
0.435,0.009,0.931,3.418,-5.249,-8.728
0.424,0.022,0.939,2.563,-3.052,-7.080
0.419,0.028,0.938,0.305,3.845,-6.104
0.423,0.028,0.932,-0.427,7.507,-5.554
0.424,0.042,0.923,0.061,7.202,-5.310
0.438,0.050,0.921,0.549,6.409,-6.165
0.463,0.049,0.911,-1.587,3.113,-7.141
0.460,0.056,0.911,-1.526,1.038,-6.042
0.470,0.049,0.925,1.099,2.197,-5.249
0.478,0.041,0.930,1.282,2.991,-4.700
0.465,0.042,0.925,-0.061,2.686,-2.197
0.464,0.035,0.924,-0.122,2.197,-2.197
0.465,0.028,0.926,-1.038,-3.540,-3.296
0.445,0.041,0.912,-1.831,-6.104,-2.991
0.441,0.040,0.895,-0.427,-2.075,-2.380
0.446,0.027,0.898,4.517,1.343,0.183
0.443,0.026,0.917,5.615,1.587,1.770
0.440,0.022,0.922,4.395,1.282,2.075
0.434,0.019,0.920,0.061,-2.869,0.977
0.418,0.027,0.908,-0.793,-3.235,0.732
0.420,0.034,0.906,0.427,0.671,0.366
0.418,0.038,0.907,1.343,2.136,0.122
0.432,0.021,0.911,1.465,2.319,-2.014
0.438,0.016,0.917,0.671,-4.333,-4.578
0.442,0.014,0.919,0.610,-6.409,-5.554
0.454,0.009,0.918,1.587,-2.869,-2.686
0.445,0.022,0.924,1.465,1.221,0.854
0.436,0.031,0.917,0.305,6.470,2.014
0.448,0.026,0.896,1.160,3.235,-0.305
0.450,0.029,0.902,4.211,-4.944,-1.404
0.424,0.037,0.921,3.906,-3.113,0.000
0.420,0.032,0.922,3.235,3.662,0.061
0.431,0.025,0.928,3.479,2.197,-1.282
0.434,0.029,0.933,0.854,-3.296,-2.563
0.431,0.028,0.924,-0.549,-2.502,-2.502
0.433,0.026,0.921,0.183,2.502,-2.563
0.455,0.012,0.927,0.366,2.930,-2.441
0.462,0.012,0.926,-0.427,0.854,-0.244
0.451,0.026,0.914,-0.366,1.770,0.916
0.454,0.021,0.912,2.319,1.770,-0.183
0.451,0.017,0.930,2.808,-0.610,-0.610
0.439,0.020,0.926,-1.038,-0.122,0.671
0.430,0.028,0.890,-1.587,3.357,1.648
0.431,0.029,0.884,1.892,4.822,1.831
0.427,0.025,0.910,4.150,0.732,0.793
0.434,0.015,0.934,4.456,-4.944,-2.502
0.442,0.005,0.937,2.075,-5.493,-3.540
0.457,-0.005,0.945,1.892,-5.493,-2.747
0.462,-0.010,0.951,0.427,-2.441,0.732
0.455,-0.010,0.948,-1.709,-0.183,2.563
0.447,0.001,0.933,-4.700,1.465,2.869
0.437,0.018,0.909,-4.272,0.671,2.075
0.435,0.021,0.909,-1.526,-1.343,0.488
0.437,0.020,0.906,-0.610,-1.465,0.122

0.659,0.787,1.381,27.344,6.958,-5.737
0.653,0.983,1.498,39.612,-4.639,-3.967
0.592,1.140,1.466,61.401,-12.512,-2.686
0.558,1.161,1.401,82.458,2.014,-3.052
0.504,1.046,1.208,92.102,8.484,-6.714
0.479,0.966,1.106,115.479,9.033,-23.437
0.408,0.805,0.934,127.625,-1.892,-38.757
0.350,0.691,0.865,144.836,-58.411,-81.299
0.185,0.383,0.741,149.780,-92.041,-99.182
0.097,0.182,0.675,152.161,-121.277,-110.779
-0.030,-0.291,0.540,149.292,-110.352,-102.966
-0.178,-0.718,0.368,128.113,-57.068,-69.702
-0.226,-0.939,0.253,83.923,-2.991,-51.147
-0.205,-1.367,0.063,57.983,6.226,-52.612
-0.154,-1.537,0.011,18.066,-13.794,-71.106
0.105,-1.820,0.061,11.230,-27.954,-88.257
0.302,-1.898,0.193,17.517,-45.593,-111.816
0.689,-1.832,0.565,17.273,-46.631,-107.361
0.797,-1.696,0.694,-18.982,-13.733,-55.176
0.816,-1.491,0.689,-54.810,24.353,-13.245
0.714,-1.453,0.580,-124.573,95.642,76.172
0.397,-1.443,0.335,-144.104,106.323,107.178
0.302,-1.435,0.244,-148.682,75.500,124.023
0.191,-1.430,0.126,-146.484,45.227,118.835
0.160,-1.426,0.137,-132.568,-21.973,111.938
0.077,-1.243,0.296,-122.375,-39.307,115.417
0.012,-1.069,0.394,-112.732,-13.062,130.493
0.002,-0.700,0.558,-111.206,18.005,133.118
0.045,-0.503,0.619,-106.812,63.538,124.084
0.084,-0.176,0.652,-105.225,73.547,115.784
0.096,-0.060,0.646,-102.966,72.815,93.262
0.041,0.224,0.661,-98.816,64.697,80.994
-0.011,0.366,0.674,-85.327,55.481,59.814
0.030,0.542,0.706,-81.665,55.420,48.767
0.108,0.616,0.736,-78.979,41.565,26.489
0.164,0.841,0.817,-77.942,30.212,18.127
0.178,0.932,0.834,-71.411,26.306,-1.099
0.308,1.074,0.853,-60.730,34.241,-11.963
0.367,1.110,0.883,-29.968,53.528,-18.616
0.452,1.094,0.974,-18.188,56.458,-20.325
0.510,1.039,1.001,-1.770,29.968,-41.077
0.673,0.870,1.058,8.789,5.371,-52.063
0.716,0.782,1.117,27.283,-36.987,-49.011
0.639,0.659,1.240,29.541,-45.532,-38.330
0.587,0.615,1.279,21.790,-32.288,-21.057
0.525,0.514,1.266,14.038,-13.733,-16.479
0.577,0.407,1.134,-1.648,21.667,-14.526
0.628,0.349,1.061,-6.470,25.452,-14.282
0.664,0.293,0.997,-6.775,1.831,-11.292
0.671,0.219,0.936,-2.930,-13.733,-9.399
0.642,0.207,0.933,3.296,-26.001,-2.869
0.573,0.186,0.916,3.540,-20.142,1.770
0.549,0.168,0.896,2.197,2.014,11.414
0.519,0.133,0.852,2.014,9.094,14.282
0.507,0.121,0.824,4.028,5.005,11.902
0.504,0.117,0.823,6.348,-2.686,8.179
0.508,0.098,0.844,11.963,-11.841,2.930
0.516,0.087,0.862,12.939,-7.080,5.493
0.514,0.072,0.882,10.315,-3.296,8.728
0.498,0.076,0.882,4.395,1.099,13.123
0.471,0.094,0.878,3.235,0.061,12.512
0.462,0.102,0.881,4.333,-4.822,7.935
0.457,0.106,0.905,5.188,-5.249,5.737
0.472,0.090,0.915,4.028,-2.625,3.662
0.489,0.081,0.917,2.136,-1.526,4.883
0.474,0.094,0.908,-1.160,0.732,6.714
0.474,0.093,0.886,-1.648,1.404,5.859
0.477,0.092,0.883,-1.160,0.061,4.944
0.474,0.105,0.875,-1.099,-0.122,4.211
0.484,0.102,0.869,-1.099,-0.549,3.235
0.474,0.117,0.862,-1.221,-1.038,4.517
0.462,0.130,0.853,-0.610,1.160,5.432
0.458,0.140,0.839,0.854,1.831,4.395
0.452,0.143,0.842,4.028,-1.099,2.197
0.449,0.140,0.849,5.737,-3.174,0.305
0.457,0.129,0.857,10.010,-4.761,-2.075
0.457,0.121,0.887,11.292,-4.211,-1.953
0.466,0.105,0.896,11.292,-3.357,-2.197
0.493,0.084,0.918,10.803,-3.845,-0.977
0.474,0.091,0.920,6.348,-3.296,1.465
0.476,0.085,0.903,4.089,-2.136,0.610
0.474,0.091,0.895,4.272,-1.892,-0.122
0.468,0.095,0.901,4.150,-3.845,-1.221
0.477,0.084,0.899,3.540,-5.127,-2.502
0.479,0.081,0.901,2.869,-5.249,-1.160
0.464,0.089,0.905,1.892,-3.479,0.122
0.458,0.097,0.898,-0.122,-1.587,0.244
0.452,0.109,0.890,0.366,-1.892,-0.244
0.450,0.113,0.895,2.075,-2.197,-1.831
0.459,0.108,0.897,2.319,-2.197,-2.563
0.461,0.110,0.896,2.869,-1.465,-2.625
0.470,0.099,0.898,3.113,-0.977,-2.625
0.472,0.094,0.901,3.479,-0.916,-2.014
0.469,0.090,0.902,2.808,-0.671,-1.526
0.465,0.091,0.899,1.953,-0.427,-0.977
0.454,0.101,0.889,0.244,-0.610,-0.671
0.454,0.104,0.883,-0.061,-1.648,-1.221
0.456,0.101,0.891,1.648,-3.906,-1.892
0.456,0.096,0.901,2.380,-2.197,-1.465
0.461,0.090,0.908,1.465,-1.343,-1.099
0.460,0.092,0.907,-0.183,-0.305,-0.366
0.463,0.104,0.902,-0.427,-0.305,-0.610
0.463,0.111,0.900,-0.671,-0.366,-2.258
0.469,0.107,0.895,-0.671,-0.305,-2.991
0.474,0.106,0.893,0.183,-1.587,-3.723
0.477,0.102,0.892,0.916,-1.831,-3.723
0.479,0.097,0.896,2.930,-1.648,-3.418
0.484,0.082,0.910,3.113,-1.892,-3.174
0.487,0.073,0.914,0.183,-2.808,-1.648
0.479,0.072,0.909,-1.648,-3.357,-0.732
0.467,0.076,0.902,-2.502,-1.892,0.305
0.453,0.082,0.896,-1.709,-0.061,0.977
0.446,0.088,0.893,-1.892,1.831,1.587
0.442,0.091,0.885,-2.869,1.526,1.282
0.428,0.107,0.877,-3.235,1.221,0.732
0.423,0.113,0.876,-2.930,1.587,0.244
0.427,0.114,0.877,-2.197,1.831,-0.977
0.439,0.120,0.879,-1.770,1.648,-1.160
0.449,0.119,0.878,0.122,1.221,-2.380

0.635,1.009,1.391,16.418,21.484,5.432
0.684,1.173,1.497,36.316,-2.930,1.831
0.768,1.455,1.682,46.997,-15.564,-0.549
0.772,1.577,1.681,52.307,-16.418,2.441
0.696,1.642,1.453,49.438,-2.991,9.888
0.614,1.558,1.286,58.105,17.456,23.376
0.362,1.291,1.015,72.632,11.597,19.653
0.212,1.137,0.913,105.408,-43.030,-20.630
-0.122,0.740,0.718,117.554,-82.947,-49.500
-0.286,0.509,0.610,133.606,-129.456,-103.394
-0.483,-0.048,0.330,138.550,-116.394,-123.352
-0.471,-0.405,0.180,134.888,-41.931,-141.113
-0.304,-1.175,-0.041,122.253,-9.583,-137.817
-0.190,-1.547,-0.100,76.721,-6.531,-123.108
0.053,-2.115,-0.106,53.101,-36.804,-124.268
0.177,-2.282,0.009,48.462,-125.610,-151.123
0.531,-2.406,0.612,72.205,-163.330,-170.898
0.913,-2.033,1.189,100.464,-168.213,-187.622
1.025,-1.739,1.178,9.155,-13.855,-117.249
0.995,-1.445,0.650,-62.866,95.276,-50.049
0.852,-1.486,0.357,-119.141,182.800,23.132
0.477,-1.653,0.013,-142.212,223.511,127.808
0.335,-1.710,-0.066,-98.206,118.347,144.897
0.175,-1.740,-0.080,-80.078,45.654,139.343
0.100,-1.628,0.002,-74.707,-63.293,144.897
-0.130,-1.181,0.211,-84.229,-76.599,158.875
-0.238,-0.935,0.296,-98.816,-26.306,186.157
-0.316,-0.539,0.478,-100.281,14.587,190.369
-0.289,-0.378,0.581,-106.628,71.228,176.208
-0.222,-0.030,0.703,-111.206,80.078,162.231
-0.139,0.353,0.739,-114.868,85.754,120.178
-0.119,0.542,0.787,-107.483,87.036,77.454
-0.039,0.884,0.890,-107.727,86.487,64.941
-0.020,1.052,0.920,-113.098,77.942,47.302
-0.050,1.364,0.939,-107.483,75.684,35.645
-0.015,1.480,0.950,-80.627,86.365,-3.967
0.291,1.436,0.950,-64.697,87.036,-25.635
0.485,1.317,0.948,-31.982,59.326,-46.692
0.689,1.135,1.021,-15.015,36.682,-46.692
0.697,1.066,1.073,12.146,-8.362,-45.044
0.628,0.885,1.125,21.057,-24.780,-45.776
0.582,0.795,1.135,30.762,-32.288,-45.105
0.546,0.621,1.122,29.907,-24.414,-43.579
0.585,0.525,1.079,18.982,-6.287,-39.734
0.687,0.366,0.962,12.817,-0.122,-33.691
0.711,0.329,0.927,8.545,5.188,-14.893
0.705,0.324,0.896,9.705,3.906,-9.216
0.709,0.302,0.882,12.146,-4.578,-9.521
0.723,0.221,0.854,13.062,-9.583,-10.620
0.727,0.181,0.843,11.108,-10.864,-7.629
0.706,0.139,0.824,7.751,-8.057,-2.380
0.668,0.146,0.809,-0.122,0.488,12.878
0.575,0.179,0.765,-1.587,6.165,18.433
0.552,0.178,0.751,3.052,10.742,19.226
0.540,0.150,0.759,6.165,6.592,16.052
0.532,0.137,0.775,9.644,-6.287,8.118
0.512,0.123,0.810,10.864,-8.911,5.615
0.502,0.119,0.829,12.146,-4.761,5.249
0.491,0.109,0.858,11.597,-1.770,6.470
0.483,0.110,0.871,9.827,0.488,8.118
0.470,0.115,0.896,8.911,0.244,7.202
0.468,0.120,0.904,5.676,-1.404,2.441
0.479,0.138,0.895,3.784,-0.977,-0.366
0.498,0.143,0.887,1.465,2.991,-3.906
0.553,0.139,0.876,0.671,3.479,-4.578
0.573,0.137,0.870,0.122,-0.244,-4.089
0.578,0.139,0.874,0.549,-1.343,-2.930
0.576,0.139,0.879,0.244,0.549,0.122
0.568,0.150,0.880,-0.977,2.197,1.831
0.556,0.157,0.874,-4.150,3.845,4.395
0.523,0.172,0.860,-5.005,3.296,4.517
0.508,0.175,0.853,-5.371,1.221,2.014
0.499,0.172,0.838,-4.944,-0.122,0.366
0.496,0.173,0.832,-3.113,0.366,-0.122
0.512,0.161,0.825,-1.709,2.197,0.549
0.517,0.164,0.828,0.000,5.249,3.174
0.525,0.174,0.822,-0.061,5.920,3.052
0.537,0.177,0.815,2.197,3.540,0.488
0.540,0.186,0.819,4.089,1.465,-1.160
0.543,0.177,0.824,7.751,-0.793,-4.395
0.571,0.133,0.861,8.789,-2.197,-4.395
0.564,0.129,0.882,5.188,-5.432,-2.136
0.539,0.132,0.874,2.441,-3.479,-1.709
0.553,0.128,0.864,1.770,3.479,0.000
0.545,0.136,0.864,1.221,4.395,1.892
0.536,0.141,0.843,0.122,4.272,1.038
0.545,0.142,0.834,-0.793,2.197,-0.427
0.552,0.156,0.828,-0.793,0.488,-0.305
0.549,0.158,0.831,0.366,-0.671,-0.122
0.537,0.151,0.838,0.977,-0.488,0.244
0.525,0.151,0.838,1.343,1.160,1.343
0.510,0.156,0.836,1.404,2.014,1.038
0.507,0.160,0.833,2.075,1.526,-1.221
0.525,0.155,0.835,3.113,1.038,-2.563
0.539,0.150,0.843,3.967,-0.488,-4.333
0.556,0.139,0.852,3.357,-1.404,-4.517
0.561,0.136,0.853,2.258,-1.709,-3.174
0.559,0.138,0.854,2.136,-0.671,-2.197
0.560,0.137,0.855,2.136,1.709,-0.610
0.553,0.148,0.857,1.831,2.136,0.244
0.553,0.152,0.855,0.854,1.465,-0.366
0.559,0.150,0.853,0.732,-0.244,-0.793
0.556,0.151,0.853,0.793,-1.831,-0.671
0.560,0.142,0.854,0.977,-1.404,-1.099
0.564,0.133,0.856,1.099,-2.136,-0.977
0.558,0.137,0.854,0.671,-2.258,0.061
0.547,0.141,0.847,0.305,-0.061,1.892
0.542,0.145,0.846,0.305,-0.305,2.502
0.529,0.150,0.838,0.061,-1.343,1.709
0.535,0.142,0.836,0.488,-2.563,0.061
0.532,0.145,0.837,0.427,-2.014,0.244
0.535,0.139,0.839,0.671,-0.977,0.000
0.541,0.133,0.844,1.526,-0.732,-0.244
0.540,0.131,0.852,1.160,-1.404,-0.427
0.541,0.128,0.851,-0.061,-2.319,-1.221
0.538,0.131,0.847,-0.244,-1.831,-1.038
0.537,0.136,0.846,-0.488,1.099,-0.366
0.545,0.138,0.836,-0.854,1.587,-0.305
0.548,0.140,0.832,-0.488,0.671,-0.488

0.686,0.898,1.229,41.321,-13.123,-9.521
0.674,1.010,1.302,66.284,-21.118,-24.170
0.663,1.036,1.318,86.426,-20.264,-34.058
0.624,1.095,1.336,92.224,-17.761,-34.302
0.590,1.124,1.334,96.252,-11.169,-30.212
0.521,1.157,1.283,96.802,-4.883,-29.541
0.498,1.153,1.240,98.938,0.061,-39.368
0.402,1.037,1.114,97.778,-14.526,-52.002
0.304,0.890,1.020,85.632,-79.590,-83.191
0.022,0.502,0.783,79.102,-111.572,-95.215
-0.229,0.039,0.489,73.669,-121.582,-103.149
-0.302,-0.251,0.343,74.158,-96.069,-100.708
-0.257,-0.981,0.081,66.406,-29.785,-82.581
-0.191,-1.382,-0.038,35.889,-0.732,-43.762
-0.117,-2.020,-0.221,20.996,3.540,-28.625
0.002,-2.221,-0.228,24.658,0.488,-57.800
0.557,-2.278,0.125,50.659,-16.113,-101.196
0.894,-2.146,0.434,95.398,-57.556,-164.734
1.427,-1.786,0.859,80.078,-56.824,-152.344
1.486,-1.607,0.870,-26.428,12.512,-38.574
1.093,-1.457,0.541,-82.153,63.354,39.856
0.800,-1.482,0.347,-127.808,122.986,153.931
0.330,-1.518,0.136,-125.977,114.563,171.326
0.172,-1.508,0.101,-103.271,34.241,153.564
0.014,-1.384,0.172,-88.440,-14.404,137.268
-0.033,-1.223,0.291,-71.899,-65.063,125.427
-0.197,-0.763,0.518,-72.266,-51.392,129.578
-0.234,-0.519,0.611,-74.585,37.537,133.179
-0.106,-0.119,0.758,-76.904,80.261,128.235
0.038,0.197,0.787,-86.304,101.440,104.797
0.073,0.345,0.767,-89.478,87.891,87.830
0.105,0.472,0.751,-83.862,61.584,53.955
0.188,0.681,0.809,-75.623,56.763,43.335
0.223,0.781,0.884,-64.148,53.040,31.677
0.291,0.930,0.974,-64.453,50.964,23.621
0.359,0.946,0.945,-67.200,48.462,0.122
0.559,0.947,0.874,-60.913,49.744,-9.094
0.650,0.965,0.875,-38.574,50.537,-15.564
0.749,0.965,0.883,-28.931,44.189,-16.846
0.752,0.939,0.881,-11.230,18.494,-23.987
0.714,0.834,0.905,-1.099,4.883,-29.236
0.682,0.699,0.993,20.203,-16.113,-36.682
0.654,0.625,1.032,26.184,-22.644,-36.926
0.633,0.547,1.058,25.391,-21.851,-35.889
0.665,0.407,1.054,21.057,-14.465,-35.217
0.707,0.349,1.018,11.841,2.258,-26.611
0.762,0.267,0.930,9.827,7.812,-18.799
0.765,0.244,0.900,9.705,8.362,-7.812
0.752,0.194,0.857,9.521,3.235,-6.836
0.754,0.169,0.842,7.324,-12.207,-7.080
0.703,0.127,0.828,5.066,-17.822,-5.554
0.667,0.118,0.819,2.319,-18.372,-0.732
0.606,0.110,0.802,1.953,-13.611,1.099
0.585,0.102,0.797,1.831,-2.380,3.601
0.566,0.081,0.795,1.831,0.549,4.333
0.563,0.074,0.801,2.380,-1.099,2.991
0.560,0.060,0.822,2.441,-3.906,1.404
0.561,0.056,0.834,0.549,-7.629,-0.854
0.570,0.060,0.838,-0.916,-7.141,-1.160
0.575,0.062,0.838,-2.075,-0.732,0.488
0.566,0.074,0.833,-2.686,4.089,1.770
0.575,0.073,0.825,-4.333,9.644,2.808
0.589,0.093,0.813,-4.578,7.385,2.563
0.577,0.111,0.801,-4.517,3.906,0.732
0.547,0.123,0.785,-3.235,5.859,0.549
0.561,0.110,0.808,0.854,7.141,-0.366
0.573,0.107,0.812,1.953,-0.366,-3.662
0.562,0.118,0.801,2.136,-1.099,-3.967
0.555,0.117,0.793,3.296,6.348,-2.991
0.570,0.097,0.791,3.723,9.338,-2.014
0.575,0.090,0.803,4.822,5.310,-2.563
0.589,0.082,0.827,5.371,1.099,-5.127
0.612,0.070,0.837,5.798,-4.700,-9.094
0.652,0.053,0.862,5.127,-7.324,-8.423
0.646,0.061,0.864,3.479,-8.362,-6.653
0.632,0.072,0.851,0.793,-2.075,-3.113
0.631,0.073,0.850,0.122,5.493,1.709
0.616,0.088,0.843,-1.160,6.897,3.357
0.608,0.092,0.829,-2.991,4.700,2.930
0.596,0.100,0.815,-2.197,1.953,2.014
0.587,0.106,0.817,-0.977,-1.099,0.122
0.583,0.108,0.816,-0.793,-0.854,-0.549
0.587,0.109,0.814,0.183,0.488,-0.366
0.592,0.108,0.813,0.427,0.732,0.000
0.592,0.105,0.812,0.793,-0.305,0.549
0.595,0.104,0.824,1.221,-0.977,0.427
0.601,0.098,0.830,0.793,-2.808,-0.488
0.604,0.093,0.832,0.122,-3.418,-0.427
0.601,0.093,0.832,-1.038,-1.892,-0.061
0.603,0.086,0.826,-1.526,-0.610,0.305
0.608,0.089,0.821,-2.258,1.160,1.892
0.607,0.092,0.817,-2.441,1.282,2.441
0.601,0.100,0.806,-2.258,1.404,2.930
0.597,0.100,0.805,-1.953,1.404,2.686
0.593,0.093,0.807,-1.160,-0.366,1.587
0.589,0.094,0.810,-1.099,-1.160,1.343
0.579,0.097,0.824,-1.343,-0.854,1.465
0.583,0.096,0.827,-1.831,-0.671,1.038
0.589,0.097,0.825,-1.892,-1.343,-0.061
0.588,0.098,0.823,-0.977,0.488,0.366
0.594,0.099,0.822,-0.549,1.709,0.732
0.595,0.101,0.818,-1.526,1.831,0.610
0.596,0.107,0.806,-1.892,1.038,0.366
0.598,0.110,0.805,-1.099,0.061,-0.610
0.610,0.102,0.807,-0.549,-0.427,-0.732
0.609,0.102,0.810,0.427,-0.854,0.488
0.602,0.105,0.811,0.366,0.061,1.221
0.600,0.104,0.810,0.305,0.854,1.953
0.591,0.105,0.812,0.366,0.183,1.526
0.590,0.103,0.812,0.793,-1.221,-0.183
0.588,0.101,0.823,0.854,-1.343,-0.061
0.587,0.101,0.830,-0.427,-0.305,0.732
0.592,0.099,0.828,-0.916,0.061,0.793
0.595,0.102,0.825,-0.427,0.183,0.366
0.597,0.098,0.823,-0.122,-0.366,-0.122
0.600,0.096,0.821,-0.244,-1.404,-0.244
0.594,0.099,0.819,-0.549,-0.732,0.427
0.589,0.099,0.815,-1.282,0.977,1.404
0.584,0.101,0.812,-1.648,0.977,1.587

0.839,0.907,1.154,12.756,22.766,6.287
0.902,1.051,1.239,29.175,-2.441,2.197
0.967,1.288,1.405,40.649,-22.400,-2.625
0.947,1.429,1.468,61.401,-47.119,-6.958
0.818,1.667,1.509,70.740,-42.175,-0.244
0.738,1.673,1.486,88.989,-11.230,19.348
0.568,1.431,1.352,96.741,-0.854,15.869
0.319,1.076,1.103,98.877,-12.146,-3.296
0.180,0.860,0.950,95.886,-68.054,-67.810
-0.077,0.269,0.581,90.759,-101.318,-103.577
-0.146,-0.094,0.390,82.703,-124.634,-156.006
-0.084,-0.874,0.086,78.125,-110.474,-160.400
0.034,-1.497,-0.105,65.491,-61.401,-116.455
0.038,-1.668,-0.159,44.312,4.761,-66.772
0.104,-1.886,-0.168,38.269,32.227,-67.322
0.259,-1.989,-0.069,48.035,21.851,-114.319
0.745,-2.049,0.401,57.007,-17.700,-142.212
1.009,-1.957,0.643,42.664,-82.275,-145.935
1.298,-1.579,0.776,8.484,-64.941,-105.041
1.211,-1.437,0.645,-82.153,61.707,42.053
0.771,-1.426,0.278,-109.680,122.070,115.784
0.548,-1.431,0.164,-109.558,142.212,185.974
0.189,-1.388,0.116,-95.825,105.408,183.716
0.056,-1.328,0.156,-59.753,5.127,150.696
-0.061,-1.078,0.333,-43.213,-29.480,134.033
-0.081,-0.868,0.459,-36.255,-34.973,118.774
-0.097,-0.449,0.650,-44.434,-15.137,117.737
-0.068,-0.287,0.680,-66.956,27.649,109.009
0.068,-0.066,0.645,-73.730,39.063,98.022
0.137,0.029,0.627,-67.078,43.274,76.111
0.175,0.234,0.657,-58.289,41.687,73.120
0.143,0.333,0.685,-45.166,39.551,74.402
0.093,0.554,0.746,-41.504,40.344,69.214
0.113,0.649,0.777,-35.767,39.734,43.884
0.244,0.703,0.846,-32.227,36.621,29.175
0.336,0.695,0.891,-23.987,20.508,5.920
0.454,0.743,0.994,-20.508,9.155,-0.732
0.459,0.794,1.036,-17.273,-2.441,-12.939
0.492,0.842,1.074,-17.212,-0.305,-22.949
0.553,0.814,1.062,-15.259,1.953,-44.922
0.661,0.734,1.027,-12.024,-1.831,-51.086
0.663,0.695,1.022,-4.639,-9.399,-46.387
0.626,0.616,1.021,-1.892,-8.545,-41.870
0.623,0.571,1.005,1.770,2.197,-42.603
0.676,0.472,0.966,5.188,7.324,-44.556
0.734,0.408,0.956,12.634,10.559,-44.312
0.882,0.251,0.969,13.916,5.798,-42.053
0.912,0.203,0.974,9.155,-16.113,-33.508
0.907,0.164,0.962,4.517,-25.269,-29.175
0.887,0.148,0.948,0.549,-28.259,-18.799
0.811,0.126,0.938,0.793,-21.912,-12.085
0.766,0.113,0.937,-0.793,-3.662,1.160
0.692,0.095,0.917,-2.930,2.747,5.798
0.663,0.086,0.894,-8.118,2.502,8.179
0.620,0.073,0.853,-10.193,-2.991,6.897
0.593,0.083,0.838,-13.245,-12.512,5.676
0.538,0.100,0.809,-13.428,-11.780,6.287
0.521,0.100,0.796,-9.460,-3.174,7.690
0.499,0.101,0.787,-6.653,1.587,8.118
0.490,0.099,0.786,-2.747,8.057,6.348
0.503,0.086,0.784,-0.916,7.568,3.479
0.523,0.077,0.793,2.686,-1.831,-4.089
0.557,0.067,0.827,2.869,-6.714,-6.531
0.581,0.062,0.845,0.793,-7.996,-7.019
0.591,0.063,0.853,-1.038,0.671,-2.625
0.601,0.079,0.854,-1.953,6.104,0.061
0.603,0.087,0.846,-2.991,10.986,2.075
0.604,0.088,0.843,-2.625,8.911,1.160
0.602,0.088,0.849,-2.441,0.916,-1.282
0.592,0.097,0.850,-3.052,-1.709,-1.587
0.587,0.102,0.845,-3.357,0.610,0.671
0.577,0.110,0.840,-3.113,3.784,2.136
0.574,0.110,0.831,-3.357,6.653,2.869
0.570,0.104,0.811,-2.869,5.066,2.136
0.567,0.102,0.810,-0.671,-0.610,-0.610
0.571,0.098,0.810,0.000,-2.686,-1.465
0.571,0.097,0.807,1.587,-2.014,-0.916
0.572,0.088,0.807,2.686,0.061,-0.488
0.578,0.081,0.811,3.540,1.587,0.610
0.568,0.091,0.821,3.296,0.793,0.854
0.565,0.092,0.820,2.319,0.793,-0.183
0.575,0.088,0.819,2.319,0.916,-0.671
0.579,0.089,0.823,2.441,0.122,-1.160
0.584,0.085,0.840,2.136,-0.183,-1.160
0.587,0.084,0.849,1.221,-0.183,-0.610
0.597,0.088,0.852,0.793,0.488,-0.305
0.597,0.090,0.849,-0.061,3.845,1.221
0.599,0.083,0.843,-0.671,4.333,2.075
0.595,0.084,0.838,-1.587,2.014,2.686
0.566,0.096,0.824,-1.770,1.526,2.563
0.561,0.096,0.818,-1.343,3.113,2.014
0.552,0.102,0.814,-1.038,3.601,1.587
0.552,0.104,0.811,-0.122,3.784,-0.549
0.574,0.093,0.811,0.916,2.563,-1.709
0.575,0.097,0.815,2.319,-0.244,-2.930
0.585,0.091,0.816,2.563,0.244,-3.235
0.597,0.082,0.823,2.625,0.488,-2.808
0.600,0.077,0.829,2.014,-0.488,-2.563
0.598,0.077,0.827,1.343,-0.061,-1.038
0.593,0.083,0.829,1.343,1.282,-0.183
0.591,0.085,0.828,0.977,2.380,-0.244
0.592,0.084,0.822,0.854,2.075,-0.366
0.588,0.091,0.821,1.099,2.014,-0.183
0.584,0.096,0.821,1.282,2.441,-0.671
0.593,0.090,0.822,1.526,1.587,-1.160
0.599,0.088,0.826,1.343,-0.061,-1.099
0.594,0.090,0.825,1.221,-0.854,-0.854
0.591,0.091,0.827,1.221,1.526,-0.366
0.592,0.085,0.829,0.916,1.099,-0.854
0.591,0.086,0.829,0.671,-1.160,-1.587
0.598,0.088,0.830,0.610,-0.854,-1.221
0.599,0.091,0.830,0.244,0.488,0.366
0.589,0.095,0.829,0.183,0.732,0.488
0.588,0.090,0.826,0.305,-0.183,-0.427
0.584,0.085,0.819,0.000,-0.549,-0.549
0.588,0.081,0.814,-0.122,0.427,0.366
0.592,0.083,0.814,0.061,0.793,1.221
0.588,0.089,0.815,0.305,0.732,0.610
0.596,0.085,0.815,0.793,-0.061,-0.488

1.050,0.931,1.167,7.751,73.792,11.414
1.169,1.069,1.208,17.273,43.579,6.409
1.187,1.293,1.248,17.273,-7.751,-4.578
0.982,1.326,1.190,18.982,-24.475,-2.930
0.691,1.272,1.073,28.259,-33.264,1.709
0.523,1.233,0.998,41.931,-29.236,-2.502
0.179,1.163,0.857,55.481,-24.536,-11.658
0.027,1.088,0.798,94.788,-22.095,-42.908
-0.260,0.862,0.711,113.953,-29.297,-62.012
-0.395,0.688,0.651,136.414,-45.776,-106.079
-0.530,0.043,0.436,139.465,-48.889,-132.690
-0.458,-0.440,0.319,126.221,-64.636,-171.936
-0.096,-1.491,0.160,109.863,-84.167,-166.626
0.022,-1.884,0.101,64.087,-115.967,-103.088
0.168,-2.296,0.026,43.762,-107.483,-78.064
0.593,-2.363,0.237,48.950,-45.776,-94.299
0.899,-2.227,0.470,70.496,9.277,-144.348
1.350,-1.710,0.764,52.917,22.522,-139.404
1.401,-1.444,0.719,-28.076,66.223,-44.067
1.167,-1.242,0.415,-61.829,100.891,27.161
0.953,-1.261,0.267,-82.031,145.691,133.179
0.513,-1.287,0.087,-77.515,140.381,154.297
0.342,-1.321,0.041,-56.763,83.801,162.476
0.125,-1.357,0.083,-43.640,44.250,159.912
0.025,-1.260,0.169,-25.024,-27.893,147.583
-0.171,-0.882,0.391,-24.292,-47.241,137.817
-0.200,-0.669,0.504,-36.804,-44.800,109.802
-0.105,-0.230,0.687,-44.983,-31.494,92.468
-0.012,-0.028,0.729,-57.190,2.747,62.622
0.234,0.210,0.729,-57.983,20.813,54.260
0.401,0.316,0.786,-47.791,49.683,50.476
0.406,0.387,0.838,-40.100,56.519,50.781
0.483,0.465,0.920,-35.034,46.021,38.940
0.578,0.487,0.952,-37.781,25.757,23.437
0.729,0.574,1.004,-43.762,-15.198,-3.540
0.752,0.620,0.997,-48.584,-18.250,-5.066
0.748,0.639,0.953,-55.420,12.146,4.761
0.744,0.646,0.947,-55.298,31.006,8.911
0.739,0.666,0.941,-54.382,31.860,7.263
0.770,0.686,0.919,-53.650,14.832,2.502
0.717,0.669,0.930,-48.218,-27.344,-5.737
0.647,0.656,0.933,-41.443,-45.288,-9.094
0.558,0.585,0.932,-38.940,-40.283,-10.620
0.544,0.528,0.929,-38.208,-16.174,-9.033
0.557,0.449,0.901,-39.001,-5.432,-6.042
0.554,0.439,0.878,-41.077,3.845,0.305
0.636,0.428,0.873,-39.368,-0.916,0.183
0.642,0.403,0.869,-30.334,-29.297,-8.484
0.734,0.335,0.854,-23.193,-33.997,-15.137
0.845,0.279,0.943,-0.732,-28.198,-17.822
0.887,0.248,0.989,9.705,1.465,-0.244
0.825,0.138,0.978,3.967,12.695,7.263
0.750,0.119,0.900,-20.874,12.329,17.761
0.631,0.148,0.750,-25.452,1.892,18.250
0.587,0.159,0.715,-15.686,-21.057,13.733
0.522,0.152,0.716,-8.911,-24.963,11.230
0.505,0.149,0.728,-0.854,-31.006,3.906
0.494,0.123,0.759,1.831,-34.851,-1.038
0.505,0.109,0.792,4.883,-33.325,-3.967
0.523,0.105,0.859,4.272,-25.635,-2.014
0.531,0.118,0.881,3.784,-8.728,-1.709
0.575,0.127,0.902,4.028,-6.287,-3.967
0.589,0.126,0.901,2.380,-15.686,-5.798
0.591,0.157,0.896,-0.061,-20.203,-4.272
0.576,0.178,0.885,-10.986,-16.907,0.366
0.545,0.202,0.837,-14.404,-11.841,2.441
0.512,0.213,0.803,-12.329,-1.953,4.883
0.499,0.210,0.794,-10.071,-0.916,3.906
0.484,0.201,0.786,-6.653,-7.019,-0.183
0.488,0.197,0.790,-2.136,-7.202,-2.075
0.512,0.182,0.813,-0.122,-3.906,-2.014
0.529,0.180,0.824,2.136,-0.427,-2.686
0.565,0.166,0.850,2.991,-3.296,-4.028
0.575,0.159,0.864,2.502,-10.925,-4.761
0.573,0.156,0.882,0.732,-11.108,-2.930
0.560,0.163,0.881,-3.723,-2.991,3.357
0.527,0.179,0.863,-5.005,1.282,5.981
0.517,0.182,0.855,-4.517,2.808,6.592
0.504,0.183,0.846,-3.479,1.221,5.005
0.498,0.181,0.838,-1.404,-0.122,1.648
0.500,0.178,0.828,-0.549,-0.244,0.427
0.509,0.176,0.827,0.305,-0.916,-1.099
0.538,0.176,0.845,1.038,-0.610,-1.282
0.547,0.180,0.860,1.709,1.648,-1.160
0.552,0.184,0.862,0.977,2.747,-1.038
0.548,0.187,0.853,0.488,2.869,-0.244
0.532,0.192,0.834,0.916,1.770,-0.061
0.525,0.190,0.829,1.587,-0.244,-0.854
0.520,0.177,0.829,1.831,-0.366,-0.977
0.519,0.176,0.836,2.808,2.014,-0.305
0.535,0.172,0.853,3.113,2.991,-0.610
0.549,0.165,0.856,2.136,0.854,-1.404
0.553,0.173,0.855,0.000,-1.953,-1.282
0.541,0.183,0.847,-0.427,-1.831,-1.038
0.538,0.182,0.845,0.061,0.671,-0.183
0.532,0.178,0.846,0.366,1.709,0.427
0.531,0.177,0.846,0.671,1.404,0.549
0.528,0.179,0.844,0.916,-0.061,-0.061
0.526,0.177,0.845,0.793,-1.038,-0.732
0.522,0.174,0.845,0.610,0.610,-0.366
0.524,0.174,0.845,0.610,2.930,0.244
0.534,0.182,0.848,0.061,5.249,0.671
0.539,0.187,0.846,-0.610,4.395,0.244
0.549,0.188,0.842,-0.366,1.953,-1.160
0.553,0.185,0.843,0.183,0.183,-2.075
0.547,0.177,0.843,-0.427,-3.723,-2.747
0.541,0.173,0.840,-0.916,-3.235,-2.014
0.535,0.171,0.841,-0.671,1.648,0.916
0.532,0.173,0.842,-0.366,3.113,1.709
0.530,0.176,0.836,-0.305,1.038,0.061
0.532,0.177,0.833,0.183,-1.282,-2.197
0.537,0.182,0.840,0.671,0.183,-2.197
0.547,0.177,0.846,1.221,2.441,-1.587
0.555,0.173,0.847,1.099,1.099,-1.221
0.551,0.170,0.848,0.427,-1.709,-0.305
0.534,0.170,0.847,-0.244,-1.282,0.427
0.526,0.174,0.843,-0.732,0.427,1.221
0.527,0.179,0.841,-0.671,2.747,0.854
0.527,0.185,0.838,-0.549,1.526,-0.183

0.916,0.874,1.268,25.879,104.980,15.808
1.003,1.159,1.339,35.095,87.830,4.150
1.037,1.250,1.295,43.091,29.419,-20.630
1.016,1.240,1.215,53.162,-20.142,-50.903
0.893,1.186,1.011,75.256,-23.560,-59.082
0.672,1.127,0.866,86.060,-13.489,-47.668
0.410,1.006,0.769,102.844,12.878,-6.470
0.272,0.921,0.728,106.140,17.456,14.282
0.018,0.749,0.622,99.304,5.066,9.583
-0.081,0.633,0.552,84.229,-28.198,-25.940
-0.155,0.236,0.389,80.566,-39.490,-53.040
-0.089,-0.053,0.326,73.364,-54.871,-98.572
0.202,-0.727,0.255,66.101,-66.467,-99.548
0.307,-1.031,0.217,43.518,-83.679,-39.368
0.230,-1.380,0.095,31.921,-70.190,-0.854
0.194,-1.518,0.076,25.085,-4.333,21.851
0.354,-1.694,0.243,36.438,19.470,0.366
0.546,-1.727,0.412,59.753,-2.869,-81.787
0.965,-1.608,0.698,58.899,-45.227,-116.760
1.093,-1.464,0.707,25.208,-96.802,-117.798
1.113,-1.209,0.553,2.014,-73.181,-81.116
0.979,-1.153,0.481,-24.231,34.058,19.836
0.576,-1.106,0.398,-24.963,76.782,55.420
0.377,-1.077,0.368,-14.648,86.853,63.293
0.119,-1.031,0.304,-5.432,62.744,46.082
0.115,-1.047,0.311,10.315,-2.441,9.460
0.223,-0.968,0.478,8.606,-32.532,3.723
0.246,-0.855,0.584,-14.282,-59.509,22.278
0.239,-0.579,0.736,-27.832,-49.622,34.729
0.270,-0.437,0.769,-47.302,-7.935,51.880
0.344,-0.188,0.759,-49.561,13.123,58.044
0.370,-0.099,0.740,-43.396,48.767,65.613
0.448,-0.005,0.730,-39.612,56.335,64.636
0.482,0.037,0.755,-29.968,41.443,53.711
0.537,0.111,0.833,-26.184,29.297,47.668
0.582,0.155,0.884,-26.306,20.142,40.771
0.607,0.271,0.962,-30.884,22.644,40.161
0.610,0.329,0.954,-47.485,25.513,32.166
0.723,0.413,0.894,-52.185,20.508,22.644
0.768,0.480,0.895,-46.692,3.784,14.709
0.732,0.628,0.973,-44.189,-2.197,20.874
0.665,0.679,1.009,-48.950,-9.949,29.907
0.599,0.687,1.033,-52.734,-15.137,23.987
0.614,0.656,1.026,-57.007,-34.607,6.897
0.607,0.604,0.992,-55.786,-46.204,2.869
0.578,0.599,0.975,-48.767,-56.580,0.366
0.513,0.559,0.938,-43.640,-55.664,-3.296
0.493,0.528,0.922,-28.320,-44.067,-9.460
0.473,0.447,0.895,-20.813,-32.959,-8.606
0.473,0.404,0.888,-9.399,-9.521,-3.418
0.484,0.317,0.887,-5.432,-0.977,-0.549
0.490,0.272,0.886,-1.404,8.118,3.967
0.513,0.207,0.877,-1.099,7.812,3.296
0.527,0.190,0.868,-1.831,-7.629,-4.456
0.550,0.167,0.852,-0.854,-18.860,-8.484
0.559,0.149,0.866,3.784,-29.419,-9.155
0.555,0.112,0.914,4.456,-26.489,-5.554
0.542,0.098,0.930,2.136,-9.705,2.991
0.526,0.084,0.926,-0.061,0.427,5.493
0.527,0.083,0.908,-4.944,10.925,5.859
0.532,0.076,0.867,-6.104,8.362,3.967
0.530,0.077,0.856,-4.761,-1.343,0.916
0.512,0.092,0.851,-3.662,-2.625,0.061
0.518,0.093,0.848,-2.136,-0.122,-1.953
0.520,0.100,0.848,-1.038,-0.183,-3.052
0.524,0.096,0.855,2.380,-0.854,-4.639
0.534,0.088,0.866,4.028,0.549,-2.991
0.528,0.096,0.877,3.174,1.282,-1.221
0.524,0.098,0.873,1.282,3.723,0.000
0.519,0.106,0.870,1.160,2.441,-1.221
0.508,0.115,0.868,1.221,-0.671,-3.235
0.526,0.104,0.865,3.235,-3.052,-6.531
0.540,0.095,0.881,4.944,-1.709,-5.676
0.520,0.100,0.900,3.296,1.099,-0.977
0.515,0.098,0.892,0.793,4.578,0.488
0.524,0.094,0.886,0.916,3.723,-0.610
0.521,0.096,0.881,2.136,-0.610,-3.723
0.537,0.089,0.876,3.357,-0.061,-4.761
0.555,0.081,0.880,3.357,-1.343,-5.127
0.551,0.082,0.875,2.075,-3.052,-4.456
0.552,0.075,0.873,1.282,-1.038,-2.380
0.551,0.066,0.891,0.916,0.244,-0.671
0.534,0.079,0.884,-1.953,3.967,3.113
0.507,0.099,0.852,-1.709,7.019,3.784
0.501,0.101,0.856,1.526,5.859,1.221
0.493,0.101,0.860,2.991,-0.671,-3.784
0.508,0.080,0.863,3.906,-1.099,-5.615
0.523,0.067,0.873,4.028,0.000,-4.395
0.516,0.080,0.882,2.380,1.160,-2.563
0.514,0.091,0.871,0.122,6.226,-1.465
0.540,0.091,0.856,0.916,6.531,-2.502
0.551,0.088,0.859,2.991,-1.038,-6.104
0.552,0.089,0.865,3.357,-3.601,-7.141
0.554,0.082,0.870,3.845,-1.587,-5.920
0.560,0.061,0.885,3.784,-0.549,-4.700
0.553,0.061,0.887,2.319,-1.282,-3.601
0.540,0.065,0.875,1.709,-1.221,-3.601
0.548,0.060,0.869,1.953,-2.808,-3.174
0.542,0.070,0.876,1.953,-3.906,-2.075
0.525,0.079,0.874,0.061,-0.549,-0.610
0.515,0.080,0.853,-0.793,2.014,-0.671
0.517,0.079,0.844,-1.160,-0.732,-2.197
0.504,0.094,0.840,-0.977,-3.845,-3.540
0.505,0.093,0.840,0.305,-3.113,-3.906
0.517,0.087,0.849,1.160,-0.610,-2.563
0.515,0.089,0.851,1.587,3.113,-0.732
0.522,0.084,0.850,1.770,3.113,-1.526
0.531,0.078,0.856,2.563,-1.343,-3.479
0.534,0.073,0.868,2.197,-2.625,-3.357
0.533,0.072,0.870,1.282,0.916,-1.160
0.531,0.073,0.873,1.282,2.563,-0.061
0.526,0.074,0.878,1.038,0.488,-0.427
0.529,0.061,0.889,1.160,-1.770,-1.648
0.532,0.054,0.898,0.977,-3.418,-2.014
0.529,0.054,0.902,-0.488,-1.770,-0.977
0.529,0.055,0.892,-3.540,3.052,1.465
0.531,0.062,0.871,-3.906,3.784,2.258
0.529,0.072,0.857,-3.601,1.770,1.831
0.527,0.071,0.853,-3.113,0.000,0.977

0.918,0.999,1.166,33.386,77.942,25.330
0.969,1.110,1.228,63.049,80.811,28.992
0.947,1.219,1.312,80.627,58.838,20.813
0.895,1.213,1.338,111.084,9.033,1.526
0.755,1.114,1.363,119.995,-6.470,-2.258
0.664,1.055,1.355,125.488,-19.348,-4.578
0.472,0.933,1.279,124.390,-17.334,-7.935
0.301,0.748,1.104,118.835,-0.305,-27.222
0.226,0.625,0.988,104.065,-9.644,-63.965
0.104,0.273,0.790,94.238,-31.860,-82.458
0.081,0.034,0.695,68.970,-79.163,-94.727
0.059,-0.516,0.452,53.345,-87.402,-85.266
0.042,-1.094,0.224,22.034,-64.148,-46.326
0.027,-1.334,0.124,-8.423,-23.132,-13.000
0.060,-1.727,0.028,-17.700,-7.751,-17.700
0.169,-1.864,0.083,-9.705,-16.602,-82.092
0.596,-1.934,0.360,1.831,-43.579,-129.028
0.839,-1.838,0.493,3.784,-90.942,-179.382
1.065,-1.472,0.574,-12.817,-77.026,-159.729
1.048,-1.308,0.539,-57.190,41.504,-53.101
0.875,-1.229,0.395,-71.045,109.131,7.812
0.714,-1.239,0.326,-75.317,158.020,85.327
0.343,-1.190,0.233,-70.801,129.761,92.163
0.216,-1.160,0.194,-60.303,24.963,61.768
0.097,-1.087,0.173,-53.162,-21.362,46.814
0.065,-1.022,0.218,-36.255,-64.209,43.823
0.023,-0.838,0.390,-30.334,-62.439,50.476
0.025,-0.715,0.482,-29.358,-30.640,65.247
0.094,-0.426,0.649,-31.921,-6.836,71.289
0.150,-0.304,0.724,-41.443,36.804,88.196
0.242,-0.119,0.823,-47.607,47.729,98.083
0.270,-0.012,0.847,-53.406,46.692,106.750
0.297,0.215,0.889,-53.955,42.358,104.980
0.320,0.298,0.919,-58.105,33.020,92.896
0.390,0.404,1.010,-60.791,24.841,85.327
0.381,0.504,1.059,-68.604,9.644,68.176
0.337,0.777,1.070,-75.500,7.507,52.673
0.379,0.859,1.021,-88.684,7.324,5.798
0.551,0.812,0.872,-89.172,4.211,-13.794
0.603,0.757,0.818,-68.298,-0.244,-22.766
0.591,0.775,0.804,-52.063,3.235,-19.653
0.565,0.777,0.824,-28.809,4.395,-25.391
0.605,0.738,0.857,-24.048,-5.859,-32.043
0.645,0.707,0.854,-22.217,-40.405,-42.664
0.674,0.629,0.824,-17.639,-53.772,-41.687
0.654,0.590,0.841,3.113,-49.316,-24.719
0.589,0.522,0.955,12.512,-33.752,-15.442
0.569,0.480,1.008,16.235,1.221,-6.775
0.584,0.361,1.005,13.000,13.794,-5.920
0.618,0.305,0.968,7.141,19.470,-12.390
0.681,0.244,0.923,6.897,9.155,-18.372
0.690,0.224,0.920,9.155,-21.057,-24.902
0.671,0.182,0.924,10.376,-29.297,-24.963
0.663,0.157,0.928,10.071,-21.423,-18.738
0.646,0.096,0.923,7.202,-10.681,-12.939
0.622,0.081,0.911,-2.747,6.348,-1.221
0.570,0.090,0.863,-7.141,8.301,1.465
0.552,0.098,0.837,-9.155,-1.221,0.427
0.511,0.116,0.807,-7.019,-7.263,-1.648
0.492,0.119,0.808,0.000,-9.888,-4.211
0.477,0.111,0.841,2.869,-5.615,-3.723
0.475,0.110,0.858,3.418,4.089,-1.892
0.485,0.107,0.870,2.747,5.371,-2.747
0.495,0.106,0.876,3.174,-1.709,-8.972
0.521,0.101,0.892,4.211,-7.141,-13.000
0.536,0.095,0.899,7.019,-11.475,-16.846
0.558,0.081,0.916,7.874,-8.606,-15.564
0.566,0.076,0.918,7.446,0.916,-8.667
0.563,0.073,0.908,6.592,4.883,-4.517
0.554,0.073,0.905,4.089,7.568,0.793
0.528,0.085,0.889,2.197,4.883,0.916
0.516,0.092,0.873,0.061,-3.174,-2.014
0.506,0.099,0.863,0.671,-6.775,-4.211
0.507,0.095,0.868,2.869,-12.268,-7.996
0.515,0.079,0.872,3.845,-12.512,-8.423
0.512,0.071,0.866,5.249,-4.822,-4.395
0.500,0.075,0.862,6.470,5.005,0.000
0.486,0.080,0.855,6.958,5.676,-0.977
0.494,0.074,0.855,7.629,-1.160,-6.714
0.526,0.052,0.870,7.507,-4.883,-8.362
0.539,0.041,0.884,4.150,-6.958,-6.287
0.537,0.044,0.892,1.709,-4.822,-3.174
0.527,0.057,0.885,0.000,-0.916,-0.061
0.509,0.074,0.870,-0.244,7.141,3.235
0.509,0.080,0.861,0.366,7.629,1.404
0.514,0.085,0.848,0.854,4.517,-0.488
0.521,0.077,0.852,2.502,-0.122,-1.892
0.521,0.067,0.880,2.075,-1.038,-1.160
0.509,0.071,0.880,-0.427,-1.160,0.488
0.489,0.087,0.856,-0.427,1.404,1.099
0.490,0.091,0.846,1.892,7.385,0.793
0.508,0.089,0.842,3.418,6.775,-0.305
0.512,0.089,0.845,5.310,0.549,-3.296
0.515,0.084,0.855,5.859,-1.221,-3.906
0.514,0.081,0.863,6.409,0.671,-3.113
0.526,0.066,0.879,6.165,2.197,-2.625
0.530,0.063,0.883,4.517,2.075,-1.587
0.532,0.063,0.874,3.784,2.319,-1.709
0.545,0.056,0.869,3.784,2.014,-2.136
0.551,0.056,0.872,3.967,1.099,-1.770
0.550,0.054,0.875,3.723,0.427,-2.075
0.557,0.044,0.878,3.601,-0.366,-2.380
0.557,0.046,0.874,2.258,-1.465,-1.038
0.548,0.052,0.868,1.404,-1.770,0.061
0.537,0.056,0.860,1.953,-1.221,0.977
0.522,0.052,0.860,3.418,-0.916,0.732
0.516,0.049,0.864,5.249,-1.526,0.061
0.515,0.045,0.871,5.432,-2.625,-0.427
0.520,0.036,0.895,5.127,-5.615,-1.221
0.520,0.030,0.908,2.869,-5.493,-0.366
0.515,0.029,0.915,1.160,-4.639,0.244
0.511,0.034,0.909,-1.343,-2.380,1.099
0.501,0.043,0.890,-1.770,-0.183,1.770
0.502,0.047,0.880,-2.136,2.502,1.831
0.522,0.050,0.852,-2.258,1.587,0.977
0.536,0.053,0.843,-0.610,-2.808,-0.122
0.534,0.062,0.846,0.549,-3.662,0.183
0.530,0.062,0.850,1.953,-0.732,0.916
0.523,0.062,0.851,2.136,0.916,1.404

0.810,0.812,1.158,19.653,39.978,11.414
0.901,0.881,1.198,34.058,4.517,5.737
1.018,0.890,1.276,43.701,-25.391,1.648
0.964,0.856,1.337,59.631,-64.575,2.808
0.906,0.835,1.332,61.707,-46.021,27.161
0.741,0.808,1.251,60.425,-24.414,41.626
0.628,0.776,1.175,57.800,14.526,62.378
0.372,0.663,1.006,59.509,26.733,61.890
0.272,0.606,0.919,67.383,24.597,30.640
0.106,0.490,0.728,69.031,3.418,3.906
0.029,0.408,0.647,70.068,-28.259,-26.184
-0.055,0.095,0.521,74.097,-86.304,-76.233
-0.071,-0.130,0.493,70.557,-97.168,-90.027
-0.043,-0.589,0.467,65.002,-88.867,-83.130
-0.036,-0.787,0.433,50.232,-56.091,-55.115
-0.083,-1.123,0.333,41.992,-31.128,-43.701
-0.070,-1.300,0.287,31.067,24.109,-48.035
0.186,-1.602,0.308,29.358,39.612,-63.110
0.374,-1.661,0.395,29.663,14.465,-103.271
0.751,-1.542,0.604,26.794,-17.822,-119.690
0.893,-1.440,0.648,6.287,-44.189,-114.624
1.012,-1.271,0.625,-10.071,-18.311,-87.585
0.979,-1.226,0.573,-37.048,65.552,-5.737
0.741,-1.192,0.455,-41.077,90.576,29.968
0.562,-1.144,0.400,-32.104,78.552,58.044
0.260,-1.018,0.320,-24.231,52.124,50.903
0.164,-1.015,0.346,-10.254,-10.864,18.860
0.177,-1.003,0.432,-7.263,-39.673,9.155
0.143,-0.780,0.654,-16.724,-74.341,21.484
0.088,-0.649,0.726,-36.865,-52.368,49.133
0.026,-0.394,0.814,-44.617,-24.780,55.420
0.035,-0.281,0.841,-50.903,25.818,53.284
0.111,-0.092,0.859,-50.293,43.274,49.866
0.176,-0.030,0.859,-47.852,61.218,49.133
0.269,0.038,0.860,-48.523,59.265,49.866
0.285,0.078,0.864,-52.612,41.443,45.044
0.401,0.176,0.893,-55.298,31.921,39.734
0.488,0.222,0.919,-62.988,14.832,31.982
0.519,0.349,0.943,-67.200,9.338,33.020
0.478,0.423,0.929,-70.190,13.977,36.621
0.464,0.536,0.926,-68.115,23.132,34.119
0.484,0.586,0.945,-63.477,33.508,18.860
0.531,0.674,0.935,-63.416,29.358,7.751
0.566,0.685,0.896,-60.120,7.812,-13.977
0.647,0.662,0.848,-52.063,-5.371,-20.081
0.654,0.648,0.863,-29.907,-23.804,-18.616
0.584,0.621,0.931,-22.095,-27.649,-15.137
0.544,0.589,0.957,-14.038,-26.123,-14.648
0.541,0.481,0.983,-9.338,-20.752,-16.296
0.582,0.398,1.002,-0.488,-3.296,-14.404
0.670,0.272,1.078,-1.160,1.831,-10.559
0.677,0.252,1.090,-12.268,-8.484,-3.479
0.681,0.218,1.042,-16.052,-16.113,-2.869
0.679,0.197,1.010,-13.916,-19.348,0.549
0.633,0.165,0.980,-11.353,-16.296,3.662
0.589,0.157,0.963,-7.385,-9.949,6.165
0.510,0.137,0.921,-5.066,-6.226,5.981
0.489,0.115,0.910,-0.549,1.648,6.104
0.462,0.091,0.898,1.038,2.502,5.554
0.458,0.083,0.893,2.563,-2.380,2.258
0.460,0.071,0.891,3.235,-4.883,0.671
0.458,0.068,0.891,5.371,-3.113,0.122
0.458,0.067,0.891,6.531,0.732,0.244
0.469,0.057,0.892,6.165,6.165,0.244
0.491,0.052,0.891,4.700,5.554,0.244
0.493,0.060,0.884,1.953,0.854,-0.549
0.492,0.058,0.873,2.014,-0.793,-1.221
0.487,0.056,0.875,3.662,-1.465,-1.160
0.472,0.062,0.880,4.211,-0.610,-0.977
0.471,0.062,0.882,5.249,1.770,-1.465
0.477,0.057,0.899,5.127,1.343,-1.343
0.473,0.063,0.905,2.869,-0.793,-1.465
0.470,0.077,0.900,1.587,-1.099,-2.319
0.469,0.082,0.894,0.793,2.075,-2.502
0.477,0.083,0.885,0.610,4.639,-2.136
0.481,0.083,0.876,0.183,5.371,-2.502
0.499,0.082,0.866,1.038,2.869,-3.113
0.498,0.085,0.871,3.418,-2.258,-3.784
0.488,0.080,0.872,4.150,-1.404,-3.540
0.498,0.066,0.877,5.737,2.625,-0.854
0.490,0.072,0.897,5.249,2.747,0.793
0.474,0.078,0.894,2.625,4.272,1.953
0.488,0.061,0.893,3.052,4.517,1.648
0.493,0.058,0.905,2.869,-4.028,-1.099
0.470,0.072,0.898,1.526,-7.385,-2.686
0.465,0.070,0.887,1.953,0.061,-1.770
0.489,0.054,0.885,2.747,4.639,-0.427
0.487,0.058,0.880,1.770,2.991,-0.854
0.473,0.066,0.861,1.770,1.709,-1.648
0.481,0.058,0.865,4.211,2.502,-1.404
0.495,0.058,0.886,4.089,1.648,-1.648
0.485,0.067,0.871,2.319,0.854,-2.502
0.489,0.059,0.870,3.174,2.808,-2.014
0.511,0.038,0.893,4.456,3.357,-1.282
0.508,0.042,0.895,0.610,-1.770,-2.075
0.503,0.052,0.880,-0.061,-0.732,-1.831
0.502,0.054,0.885,0.732,4.578,0.244
0.489,0.065,0.888,0.305,5.127,0.549
0.493,0.065,0.880,0.244,3.906,-0.916
0.509,0.055,0.881,0.977,2.747,-0.793
0.509,0.055,0.889,0.977,-0.977,0.488
0.499,0.062,0.894,0.977,-2.075,0.427
0.491,0.063,0.894,1.099,1.282,0.916
0.489,0.059,0.888,0.916,3.540,1.160
0.493,0.057,0.887,0.977,0.671,-0.427
0.501,0.049,0.891,1.160,-2.136,-1.038
0.505,0.047,0.896,1.282,-2.319,-0.488
0.497,0.057,0.893,0.732,-0.488,-0.061
0.490,0.060,0.882,0.244,2.686,0.549
0.493,0.057,0.870,0.488,2.197,0.549
0.491,0.061,0.871,0.854,-2.136,-0.671
0.487,0.062,0.870,1.343,-2.808,-1.465
0.495,0.052,0.873,2.686,-1.221,-1.282
0.497,0.052,0.882,2.197,-0.610,-0.610
0.499,0.053,0.880,1.221,-0.793,-1.221
0.507,0.052,0.883,1.709,-1.160,-1.282
0.505,0.051,0.888,1.892,-0.183,-0.244
0.500,0.049,0.891,1.343,0.549,0.183
0.499,0.052,0.889,-0.244,1.221,0.305

0.808,0.769,1.187,87.708,-1.953,-34.790
0.825,0.729,1.212,114.014,-18.616,-55.969
0.834,0.619,1.281,120.422,-21.729,-57.739
0.848,0.555,1.332,111.206,-20.569,-38.818
0.819,0.515,1.389,95.215,-19.226,-17.456
0.639,0.596,1.352,53.528,-13.489,29.480
0.537,0.656,1.258,38.025,-8.728,40.771
0.304,0.653,1.028,26.489,-16.541,40.100
0.169,0.571,0.921,29.358,-25.818,28.931
0.034,0.457,0.835,47.607,-45.654,-14.160
-0.128,0.058,0.679,54.932,-53.467,-39.124
-0.084,-0.551,0.524,47.180,-61.584,-74.219
0.009,-0.865,0.438,31.799,-65.735,-78.247
0.257,-1.364,0.294,3.479,-64.575,-52.795
0.281,-1.501,0.245,1.282,-48.828,-37.720
0.058,-1.610,0.280,15.991,16.907,-46.265
0.220,-1.648,0.385,29.297,40.588,-82.947
0.663,-1.647,0.561,28.931,20.020,-104.187
0.770,-1.566,0.582,1.282,-10.437,-103.027
0.801,-1.358,0.490,-18.005,3.418,-79.285
0.759,-1.284,0.414,-42.603,62.500,-12.024
0.548,-1.223,0.288,-45.532,81.177,18.433
0.400,-1.199,0.239,-39.307,64.453,49.866
0.139,-1.147,0.176,-33.203,38.574,50.110
0.075,-1.135,0.186,-21.545,-12.329,36.255
0.107,-1.108,0.341,-23.010,-35.950,32.532
0.108,-1.044,0.439,-45.105,-72.205,48.523
0.047,-0.854,0.550,-56.274,-68.359,61.584
0.045,-0.724,0.588,-61.646,-10.254,75.684
0.117,-0.414,0.675,-57.495,23.865,79.712
0.161,-0.269,0.718,-48.401,60.608,88.806
0.207,-0.072,0.781,-46.997,61.951,90.698
0.235,-0.019,0.808,-47.852,45.349,83.130
0.292,0.161,0.904,-46.936,36.072,76.233
0.290,0.280,0.955,-49.255,33.020,62.683
0.350,0.405,0.976,-54.260,35.767,54.749
0.422,0.445,0.970,-58.228,30.701,36.621
0.495,0.592,0.981,-55.725,23.499,29.663
0.506,0.654,0.988,-50.781,10.681,13.977
0.551,0.683,0.999,-48.279,5.493,4.822
0.582,0.676,1.009,-38.269,-0.854,-10.559
0.641,0.638,1.026,-33.447,-2.563,-15.503
0.654,0.627,1.027,-29.419,-7.202,-17.883
0.638,0.609,0.991,-28.748,-9.399,-17.395
0.622,0.598,0.971,-20.264,-10.071,-16.418
0.560,0.554,0.961,-12.817,-10.803,-16.357
0.524,0.516,0.974,-0.610,-12.939,-16.785
0.481,0.446,1.006,1.526,-12.756,-16.663
0.478,0.419,1.013,-0.427,-7.446,-15.808
0.492,0.361,0.997,-2.258,-1.953,-15.198
0.511,0.321,0.977,-4.272,8.484,-12.573
0.572,0.233,0.938,-4.028,10.559,-10.620
0.607,0.194,0.931,-3.601,4.639,-8.118
0.634,0.147,0.919,-5.310,-1.221,-7.324
0.639,0.132,0.904,-7.996,-5.859,-5.188
0.625,0.116,0.881,-7.446,-2.625,-2.563
0.613,0.109,0.873,-5.920,7.324,3.235
0.584,0.094,0.849,-5.737,8.545,4.761
0.570,0.086,0.837,-5.493,2.930,4.639
0.541,0.084,0.842,-4.578,-1.587,2.869
0.531,0.076,0.849,-3.357,-8.423,0.916
0.523,0.060,0.859,-2.808,-7.751,1.587
0.515,0.061,0.861,-2.502,-0.610,4.333
0.510,0.064,0.849,-2.258,2.808,4.395
0.520,0.061,0.845,-1.831,3.235,1.831
0.525,0.061,0.837,-2.014,1.343,0.854
0.523,0.064,0.835,-1.709,1.221,0.366
0.527,0.060,0.838,-1.526,2.380,1.099
0.524,0.065,0.833,-1.221,3.479,2.258
0.518,0.075,0.827,0.000,3.357,2.014
0.510,0.078,0.839,3.906,2.747,0.732
0.498,0.071,0.865,4.578,3.052,0.305
0.496,0.067,0.871,2.808,5.005,1.465
0.491,0.073,0.870,1.404,5.432,1.770
0.498,0.071,0.868,-0.549,3.845,0.488
0.503,0.070,0.877,-1.465,2.014,0.000
0.499,0.073,0.878,-3.357,1.770,-0.427
0.511,0.074,0.871,-3.235,3.479,-0.610
0.518,0.076,0.869,-1.709,6.348,-1.099
0.535,0.068,0.863,-1.282,6.409,-1.770
0.546,0.062,0.859,0.000,2.563,-2.991
0.556,0.059,0.859,1.404,0.671,-2.869
0.556,0.060,0.866,4.333,1.282,-1.160
0.546,0.059,0.889,4.517,2.258,-0.183
0.541,0.055,0.891,1.831,2.563,0.977
0.525,0.059,0.878,1.160,2.441,1.221
0.518,0.063,0.875,1.404,2.930,0.854
0.509,0.064,0.881,1.404,2.625,0.305
0.505,0.065,0.885,0.610,1.709,-0.732
0.517,0.061,0.882,-0.122,1.587,-0.671
0.523,0.052,0.874,-0.366,2.075,-0.366
0.540,0.048,0.869,0.366,2.319,-0.549
0.537,0.055,0.870,-0.305,1.953,0.549
0.533,0.063,0.861,-1.099,2.930,1.038
0.537,0.063,0.858,-1.404,3.540,0.610
0.533,0.066,0.856,-1.343,2.563,-0.183
0.535,0.063,0.855,-1.221,2.014,-0.793
0.542,0.062,0.860,-0.122,1.770,-0.793
0.534,0.068,0.861,-0.244,1.526,-0.244
0.526,0.072,0.858,-0.183,2.991,0.854
0.531,0.067,0.866,0.488,3.113,0.488
0.533,0.066,0.873,0.549,0.305,-0.916
0.527,0.069,0.876,0.183,0.427,-1.343
0.531,0.068,0.874,-0.610,3.418,-1.526
0.544,0.063,0.868,-1.038,3.601,-1.587
0.549,0.065,0.865,-1.343,2.197,-1.831
0.557,0.063,0.861,-1.282,1.526,-1.587
0.554,0.068,0.861,-0.977,1.404,-0.793
0.546,0.076,0.859,-1.221,1.953,-0.671
0.549,0.078,0.854,-0.977,1.892,-1.343
0.555,0.078,0.847,-0.549,1.587,-1.404
0.556,0.076,0.847,-0.549,1.099,-0.366
0.546,0.076,0.843,-0.488,1.099,0.244
0.541,0.077,0.844,0.854,1.404,0.488
0.542,0.073,0.856,1.038,0.854,0.061
0.549,0.071,0.857,0.366,-0.671,-1.038
0.557,0.069,0.857,0.427,-0.549,-1.038
0.559,0.067,0.857,0.793,0.916,0.244
0.552,0.071,0.859,0.793,1.404,0.977

0.828,1.008,1.211,38.574,23.804,-0.061
0.883,1.103,1.271,57.312,1.221,-18.860
0.888,1.123,1.259,64.453,-9.583,-26.794
0.852,0.957,1.160,79.102,0.732,-26.733
0.839,0.865,1.113,92.102,27.283,-13.306
0.751,0.735,1.022,96.313,34.180,-5.005
0.679,0.694,0.979,100.037,25.452,-1.648
0.514,0.640,0.926,98.633,4.211,-10.742
0.306,0.540,0.914,93.567,-59.082,-41.626
0.215,0.436,0.889,88.623,-84.961,-57.495
0.148,0.059,0.737,68.909,-97.046,-74.829
0.151,-0.196,0.628,39.551,-62.256,-55.786
0.133,-0.773,0.355,22.034,-47.668,-35.767
0.098,-1.036,0.220,-7.324,-30.640,-0.366
0.113,-1.477,0.086,-12.817,-15.320,3.662
0.097,-1.651,0.077,3.235,21.240,-37.170
0.264,-1.853,0.276,16.479,19.531,-66.711
0.832,-1.840,0.574,35.156,-46.509,-118.286
0.957,-1.718,0.641,26.978,-76.965,-107.300
0.930,-1.412,0.695,10.986,-45.654,-73.486
0.850,-1.308,0.667,-29.846,52.063,16.785
0.566,-1.275,0.486,-45.776,86.609,58.716
0.390,-1.261,0.391,-56.885,92.163,98.267
0.107,-1.212,0.273,-57.129,70.557,93.750
0.042,-1.199,0.259,-52.795,13.184,74.097
-0.007,-1.072,0.356,-50.476,-13.855,69.885
-0.035,-0.958,0.440,-55.237,-52.124,67.627
-0.080,-0.681,0.588,-61.279,-57.983,66.711
-0.086,-0.541,0.626,-70.679,-30.029,60.730
-0.015,-0.230,0.697,-69.092,31.799,47.546
0.172,0.048,0.773,-67.505,55.420,42.603
0.262,0.149,0.787,-61.890,66.101,41.870
0.352,0.330,0.801,-54.749,61.096,41.260
0.383,0.412,0.828,-38.330,50.171,33.875
0.421,0.559,0.919,-33.386,46.204,27.954
0.427,0.639,0.960,-31.860,41.992,15.198
0.458,0.736,0.983,-33.569,43.213,7.202
0.520,0.729,0.966,-35.828,41.199,-19.836
0.719,0.663,0.931,-32.593,32.654,-33.997
0.821,0.630,0.929,-17.761,8.362,-41.870
0.918,0.563,0.963,-10.010,-2.258,-36.682
0.912,0.532,0.992,-3.967,-20.630,-26.978
0.849,0.477,1.036,-5.676,-31.860,-25.269
0.810,0.442,1.039,-10.986,-44.128,-20.386
0.743,0.385,1.034,-12.329,-39.673,-16.113
0.660,0.358,1.019,-13.611,-17.822,-7.874
0.625,0.344,1.004,-13.367,-8.118,-4.089
0.596,0.300,0.940,-12.451,1.953,1.404
0.591,0.276,0.898,-13.123,4.517,0.488
0.590,0.231,0.807,-13.062,3.418,-3.845
0.580,0.225,0.783,-5.798,-2.441,-1.831
0.537,0.206,0.769,-0.916,-3.479,0.122
0.531,0.183,0.767,4.456,0.183,-0.427
0.549,0.136,0.775,6.226,0.549,-1.099
0.561,0.110,0.783,11.353,-3.967,0.427
0.578,0.059,0.801,14.160,-5.859,1.282
0.581,0.038,0.823,16.968,-8.972,-0.488
0.585,0.015,0.860,15.503,-10.071,-2.686
0.586,0.009,0.867,8.972,-7.874,-4.944
0.581,-0.010,0.859,6.042,-4.395,-3.662
0.585,-0.018,0.855,3.357,3.174,0.610
0.582,-0.002,0.860,2.991,5.371,2.747
0.575,0.012,0.860,2.075,6.836,4.700
0.566,0.017,0.848,2.014,6.714,3.845
0.566,0.012,0.850,4.639,4.333,1.465
0.561,0.017,0.868,5.798,2.869,1.099
0.559,0.017,0.870,5.554,3.479,0.366
0.564,0.005,0.870,4.761,4.639,-0.061
0.563,0.003,0.866,2.991,4.517,-0.183
0.566,0.005,0.856,2.563,3.418,-0.305
0.564,0.009,0.853,3.784,1.587,-0.549
0.564,0.007,0.862,4.822,1.831,-0.916
0.569,0.003,0.869,4.944,2.014,-0.671
0.573,-0.001,0.878,4.517,1.709,0.305
0.578,-0.006,0.881,2.136,-0.061,0.732
0.568,-0.000,0.872,0.732,-1.404,0.427
0.559,-0.000,0.855,0.244,0.427,-0.061
0.562,-0.002,0.854,1.831,2.563,0.305
0.546,0.009,0.845,2.014,2.869,0.549
0.538,0.014,0.831,2.197,5.188,0.122
0.558,0.001,0.820,2.686,5.066,-0.610
0.561,0.005,0.824,2.869,-1.221,-1.709
0.552,0.018,0.826,3.601,-3.052,-2.747
0.561,0.006,0.836,7.019,-2.563,-4.883
0.582,-0.025,0.884,7.324,-4.211,-4.822
0.566,-0.021,0.899,3.723,-6.714,-2.991
0.562,-0.017,0.893,1.953,-4.089,-2.136
0.565,-0.017,0.880,-0.671,1.160,-0.610
0.558,-0.010,0.870,-1.831,1.221,0.366
0.553,0.010,0.853,-2.258,1.404,0.671
0.555,0.012,0.845,-1.953,2.808,0.427
0.557,0.014,0.831,-1.465,2.869,0.854
0.552,0.021,0.829,-0.671,2.869,0.977
0.548,0.024,0.820,-0.732,2.808,0.549
0.551,0.020,0.817,-0.183,0.549,-0.549
0.547,0.020,0.818,0.366,-1.160,-1.282
0.545,0.013,0.822,2.319,-0.610,-2.258
0.549,0.008,0.830,3.601,0.671,-2.502
0.565,-0.009,0.847,4.150,0.366,-3.113
0.573,-0.018,0.852,3.540,-1.404,-3.357
0.575,-0.019,0.863,2.136,-2.625,-2.380
0.571,-0.014,0.860,0.366,1.892,-0.366
0.576,-0.015,0.851,0.122,3.906,0.000
0.579,-0.010,0.854,-0.488,2.319,-0.183
0.567,0.007,0.843,-1.099,1.038,-0.305
0.565,0.002,0.836,0.061,1.038,-0.610
0.564,-0.005,0.845,1.160,0.000,-0.854
0.555,0.001,0.845,1.221,-1.465,-1.282
0.554,0.002,0.837,0.977,-0.183,-1.160
0.558,0.004,0.837,0.793,0.793,-0.488
0.560,0.010,0.830,1.099,0.061,-1.099
0.570,0.001,0.831,2.869,-2.319,-3.540
0.583,-0.011,0.848,3.357,-4.089,-3.906
0.578,-0.009,0.852,2.747,-4.456,-2.502
0.577,-0.016,0.855,2.319,-2.625,-1.282
0.570,-0.013,0.867,1.465,-0.977,1.282
0.562,-0.009,0.865,-0.610,-1.465,1.404
0.556,-0.000,0.852,-1.038,-1.648,0.916
0.556,0.004,0.847,-1.160,-0.977,0.977

0.917,0.708,1.175,20.508,11.353,-18.127
0.935,0.782,1.181,35.889,-1.404,-38.574
0.924,0.762,1.152,53.162,5.249,-47.852
0.918,0.722,1.141,59.937,24.109,-33.264
0.848,0.681,1.120,58.899,30.640,-18.005
0.780,0.680,1.094,50.537,35.767,15.869
0.584,0.684,0.978,43.091,31.006,24.231
0.481,0.706,0.905,26.306,-3.418,9.521
0.263,0.716,0.731,21.729,-29.846,-7.568
0.143,0.637,0.632,29.053,-72.937,-45.959
-0.048,0.192,0.451,41.504,-79.529,-62.622
-0.069,-0.131,0.393,63.538,-66.162,-66.956
0.038,-0.896,0.297,64.331,-52.429,-47.119
0.094,-1.243,0.248,47.913,-15.991,20.081
0.082,-1.672,0.164,41.931,6.042,35.889
-0.007,-1.763,0.178,43.640,30.579,-24.841
0.340,-1.846,0.445,43.091,13.184,-77.515
0.685,-1.877,0.591,33.020,-61.951,-154.602
1.087,-1.718,0.715,20.447,-79.529,-150.879
1.052,-1.394,0.643,-16.724,-19.226,-74.036
0.925,-1.304,0.549,-43.762,98.267,29.419
0.581,-1.236,0.320,-48.340,133.179,66.772
0.395,-1.201,0.233,-48.279,111.633,79.102
0.120,-1.127,0.132,-42.358,67.993,63.782
0.094,-1.091,0.138,-23.254,-23.560,26.367
0.190,-1.019,0.322,-19.409,-56.335,17.151
0.210,-0.903,0.453,-29.175,-80.261,26.062
0.156,-0.577,0.621,-34.790,-68.542,34.607
0.144,-0.417,0.650,-36.072,-12.146,38.269
0.216,-0.195,0.672,-34.302,13.184,36.682
0.265,-0.114,0.691,-26.001,29.419,37.354
0.371,0.049,0.748,-20.508,25.146,37.048
0.418,0.129,0.776,-15.442,7.568,28.625
0.501,0.240,0.807,-15.564,-0.671,23.010
0.552,0.284,0.833,-13.245,-10.864,19.714
0.625,0.362,0.928,-9.033,-13.245,23.010
0.634,0.394,0.986,1.831,-7.751,28.198
0.647,0.425,1.058,4.211,-1.831,26.489
0.674,0.414,1.058,-2.075,-5.859,13.611
0.724,0.417,1.083,-4.944,-17.151,5.188
0.672,0.474,1.139,-2.991,-27.344,-2.808
0.647,0.473,1.147,-1.526,-18.494,-2.136
0.657,0.400,1.117,-5.798,0.916,-2.930
0.680,0.349,1.086,-14.954,-11.841,-8.850
0.708,0.279,1.049,-16.052,-25.452,-8.667
0.689,0.262,1.059,-11.963,-38.635,-0.366
0.594,0.237,1.088,-10.559,-34.058,4.639
0.552,0.211,1.083,-11.108,-23.376,8.667
0.525,0.162,1.010,-18.127,1.465,13.000
0.521,0.149,0.956,-22.034,7.874,13.733
0.504,0.146,0.876,-22.888,7.507,11.719
0.495,0.135,0.858,-15.991,3.296,4.517
0.494,0.078,0.847,-12.512,1.465,0.732
0.495,0.045,0.848,-10.010,-0.244,-1.465
0.507,0.009,0.858,-8.057,0.366,-1.343
0.519,-0.010,0.855,-9.277,4.883,1.526
0.544,-0.041,0.842,-9.521,5.310,3.174
0.548,-0.043,0.842,-8.972,2.441,4.272
0.553,-0.046,0.848,-8.606,0.671,2.930
0.557,-0.054,0.852,-6.714,-1.587,-0.610
0.563,-0.076,0.871,-5.493,-1.160,-1.709
0.567,-0.080,0.882,-4.333,-0.183,-0.061
0.572,-0.085,0.893,-4.578,0.427,1.953
0.570,-0.078,0.895,-6.714,3.235,5.005
0.560,-0.056,0.883,-8.362,5.005,5.737
0.548,-0.044,0.854,-11.108,6.287,6.470
0.533,-0.035,0.840,-11.719,5.371,6.653
0.505,-0.019,0.816,-9.827,4.456,6.409
0.504,-0.010,0.811,-7.874,4.150,4.944
0.495,0.007,0.806,-3.967,-0.183,-0.488
0.495,0.004,0.808,-1.465,-1.221,-2.686
0.523,-0.016,0.834,4.089,0.122,-3.479
0.529,-0.019,0.849,5.493,0.305,-2.686
0.519,-0.024,0.857,5.432,1.831,-1.465
0.524,-0.032,0.859,5.676,2.991,-1.770
0.552,-0.044,0.866,5.737,-0.488,-5.310
0.560,-0.048,0.869,4.639,-4.761,-6.653
0.573,-0.056,0.884,4.028,-3.662,-5.188
0.572,-0.057,0.885,2.380,0.549,-0.427
0.566,-0.053,0.872,2.625,2.747,1.160
0.563,-0.051,0.874,3.784,3.052,1.526
0.551,-0.052,0.882,3.540,0.610,0.916
0.542,-0.050,0.887,3.479,-4.822,-0.305
0.516,-0.043,0.902,3.235,-5.432,-0.305
0.503,-0.042,0.901,2.197,-2.502,0.549
0.492,-0.035,0.894,1.953,-0.916,0.793
0.493,-0.027,0.889,0.366,0.305,-0.488
0.508,-0.018,0.871,-0.549,0.000,-1.892
0.516,-0.017,0.862,-0.305,-0.671,-3.662
0.531,-0.022,0.852,0.244,-0.244,-3.784
0.542,-0.026,0.852,0.244,-0.549,-3.784
0.548,-0.026,0.852,-0.427,-1.038,-2.991
0.547,-0.023,0.850,-1.770,0.793,-0.671
0.541,-0.014,0.839,-1.831,2.014,-0.244
0.540,-0.014,0.834,-0.671,2.930,-0.793
0.554,-0.025,0.833,0.000,1.587,-1.709
0.557,-0.025,0.834,0.977,-0.916,-2.380
0.561,-0.035,0.840,1.343,-0.244,-1.648
0.556,-0.039,0.849,1.709,0.427,0.305
0.548,-0.036,0.848,1.709,0.916,1.465
0.544,-0.040,0.856,2.136,1.038,1.709
0.537,-0.042,0.863,2.258,-0.549,1.160
0.529,-0.051,0.868,2.136,-0.916,0.732
0.527,-0.053,0.873,2.625,-0.488,0.854
0.522,-0.052,0.882,2.258,0.427,0.916
0.527,-0.057,0.880,0.427,0.977,0.427
0.529,-0.052,0.875,-0.183,0.305,0.427
0.527,-0.047,0.870,-0.793,1.587,0.488
0.535,-0.049,0.863,-0.610,2.014,0.183
0.538,-0.047,0.862,-0.122,0.244,-0.793
0.544,-0.044,0.857,-0.244,-0.061,-1.221
0.550,-0.049,0.855,-0.183,-0.977,-1.404
0.550,-0.043,0.860,-0.122,-1.648,-1.099
0.544,-0.038,0.861,-0.427,0.122,0.061
0.536,-0.034,0.858,-0.671,1.404,0.732
0.532,-0.029,0.857,-0.549,1.587,1.282
0.528,-0.020,0.853,-0.183,1.404,0.671
0.532,-0.023,0.854,-0.122,-0.305,-0.488
0.524,-0.019,0.857,-0.305,-0.977,-0.488

0.868,0.677,1.155,16.724,9.888,7.507
0.861,0.761,1.156,22.888,9.583,14.282
0.851,0.799,1.149,27.832,15.991,17.761
0.822,0.848,1.147,40.039,29.053,23.437
0.800,0.837,1.137,49.744,23.804,24.841
0.704,0.773,1.080,52.795,13.306,20.203
0.525,0.672,0.995,56.824,-14.771,0.916
0.430,0.603,0.942,63.354,-35.767,-23.315
0.275,0.394,0.834,69.153,-36.499,-34.119
0.219,0.228,0.773,77.209,-15.320,-44.250
0.127,-0.147,0.649,75.562,-0.916,-41.199
0.090,-0.350,0.567,57.983,22.400,-24.719
-0.005,-0.756,0.389,45.349,33.386,-15.381
-0.058,-0.953,0.289,15.137,48.035,-5.859
-0.073,-1.328,0.125,0.916,47.058,-12.756
-0.015,-1.486,0.090,-9.094,28.564,-52.063
0.294,-1.698,0.159,-2.258,14.771,-77.454
0.530,-1.732,0.257,19.470,-6.653,-116.333
0.986,-1.669,0.467,23.376,-9.399,-118.591
1.155,-1.481,0.534,5.493,-2.014,-79.773
1.108,-1.396,0.504,-27.039,17.456,-13.794
0.791,-1.286,0.375,-38.757,27.893,16.846
0.590,-1.214,0.300,-41.992,36.133,55.786
0.265,-1.088,0.196,-35.217,30.457,59.875
0.158,-1.058,0.186,-11.780,2.075,42.542
0.125,-1.052,0.262,-1.587,-16.174,28.259
0.180,-0.982,0.376,-6.348,-53.833,14.221
0.213,-0.673,0.618,-19.348,-66.833,21.118
0.213,-0.522,0.676,-42.419,-44.067,38.818
0.309,-0.304,0.701,-47.607,-13.977,42.236
0.392,-0.222,0.710,-45.349,27.466,51.208
0.458,-0.043,0.759,-38.513,33.691,57.922
0.481,0.027,0.786,-22.461,40.100,58.472
0.573,0.123,0.872,-17.273,38.452,50.598
0.590,0.201,0.928,-15.808,25.940,36.499
0.590,0.367,1.000,-19.958,22.766,31.372
0.615,0.432,1.005,-31.311,20.996,15.808
0.701,0.500,0.971,-33.997,16.785,6.653
0.743,0.505,0.959,-29.785,1.221,-3.479
0.782,0.493,0.983,-23.987,-5.371,-4.150
0.783,0.478,1.017,-11.841,-7.141,-6.287
0.775,0.424,1.072,-10.620,-4.456,-8.484
0.772,0.398,1.064,-21.790,-7.812,-10.925
0.750,0.346,0.983,-28.442,-12.329,-10.681
0.722,0.333,0.936,-30.151,-16.602,-6.897
0.655,0.316,0.882,-25.391,-14.526,-4.272
0.629,0.300,0.877,-13.855,-4.456,-3.174
0.602,0.254,0.875,-10.376,-0.122,-3.723
0.602,0.227,0.869,-10.315,-1.038,-6.653
0.620,0.164,0.846,-12.268,-7.568,-10.010
0.631,0.134,0.838,-14.648,-24.597,-15.625
0.660,0.063,0.827,-14.465,-30.884,-14.954
0.667,0.035,0.832,-10.132,-31.372,-8.789
0.649,0.019,0.863,-6.714,-24.841,-3.540
0.631,0.004,0.877,-3.845,-5.981,6.775
0.627,-0.011,0.866,-4.700,0.916,9.399
0.608,-0.009,0.832,-7.141,4.211,9.888
0.594,-0.001,0.821,-6.714,2.991,9.521
0.577,0.001,0.822,-2.930,1.587,7.324
0.579,-0.003,0.828,-1.404,1.221,5.188
0.592,-0.015,0.837,0.183,-0.122,1.953
0.598,-0.020,0.841,-0.977,1.221,2.258
0.589,-0.025,0.841,-2.197,2.380,2.747
0.594,-0.029,0.836,-2.502,2.014,2.441
0.594,-0.018,0.823,-2.197,2.197,2.563
0.589,-0.015,0.815,-2.014,5.493,3.601
0.608,-0.026,0.799,-1.709,5.188,3.540
0.605,-0.014,0.801,-0.732,-0.183,2.625
0.589,-0.007,0.800,-0.305,-0.732,2.014
0.603,-0.018,0.803,1.221,-1.160,1.160
0.599,-0.013,0.821,1.282,-2.502,1.770
0.583,-0.006,0.820,0.854,-0.183,2.869
0.593,-0.021,0.808,1.526,1.709,2.502
0.599,-0.024,0.808,3.296,-0.122,0.732
0.586,-0.023,0.813,3.784,-1.465,-0.305
0.594,-0.047,0.830,4.578,-2.014,-1.709
0.601,-0.057,0.844,2.197,-5.249,-2.258
0.595,-0.053,0.839,0.610,-5.859,-2.258
0.600,-0.056,0.827,1.099,-2.808,-1.587
0.607,-0.055,0.830,2.625,-2.136,-0.671
0.597,-0.050,0.837,2.930,-1.465,1.038
0.585,-0.050,0.833,2.319,-0.610,1.526
0.584,-0.050,0.830,1.770,-0.061,2.136
0.578,-0.048,0.831,2.075,-0.793,1.892
0.572,-0.044,0.834,2.625,-1.892,0.671
0.563,-0.036,0.830,2.136,-0.854,1.038
0.558,-0.030,0.819,1.770,2.197,1.953
0.557,-0.029,0.822,3.418,-0.671,0.610
0.552,-0.028,0.826,3.601,-1.831,-0.366
0.564,-0.036,0.829,4.761,-2.869,-2.502
0.575,-0.036,0.844,5.310,-3.723,-3.113
0.578,-0.040,0.847,4.517,-2.991,-3.723
0.604,-0.057,0.852,4.150,-3.601,-3.357
0.606,-0.054,0.859,3.601,-5.493,-2.319
0.604,-0.060,0.863,2.747,-4.761,-2.197
0.605,-0.066,0.863,1.038,-4.822,-1.282
0.583,-0.057,0.858,0.061,-5.188,-0.427
0.572,-0.050,0.845,-1.465,-0.977,1.099
0.573,-0.042,0.821,-1.221,1.038,1.709
0.571,-0.037,0.817,-0.061,0.305,1.709
0.565,-0.038,0.817,0.427,-0.916,0.732
0.568,-0.046,0.820,1.526,-3.906,-1.038
0.568,-0.048,0.832,1.648,-4.395,-0.732
0.566,-0.046,0.833,1.099,-1.526,0.610
0.565,-0.045,0.831,1.221,-0.305,0.793
0.561,-0.042,0.832,0.977,-0.183,0.427
0.564,-0.044,0.825,0.244,-0.427,-0.183
0.571,-0.046,0.820,0.488,-1.526,-0.854
0.574,-0.045,0.820,1.404,-0.854,-0.610
0.579,-0.051,0.830,2.441,0.305,-0.977
0.578,-0.052,0.833,1.831,-1.709,-1.404
0.578,-0.055,0.829,1.770,-1.465,-0.977
0.579,-0.055,0.833,2.014,0.183,0.122
0.571,-0.052,0.836,1.526,0.244,0.366
0.566,-0.049,0.830,0.977,0.549,0.061
0.565,-0.045,0.831,1.404,0.793,-0.366
0.568,-0.045,0.835,1.526,0.122,-1.526
0.573,-0.049,0.840,1.160,-0.610,-1.953
0.573,-0.052,0.844,0.183,-1.587,-1.709

0.963,0.691,1.208,31.921,15.442,-4.517
1.005,0.731,1.235,38.818,-1.404,-13.916
1.030,0.742,1.274,42.786,-6.042,-18.555
1.016,0.731,1.234,47.302,5.127,-12.695
1.013,0.724,1.189,52.979,37.598,16.846
0.924,0.726,1.094,55.969,53.162,37.659
0.831,0.727,1.045,57.739,67.017,68.909
0.604,0.789,0.970,57.373,59.509,69.092
0.472,0.823,0.929,47.241,16.418,34.973
0.207,0.721,0.777,36.438,-13.855,6.470
0.105,0.542,0.653,18.372,-77.393,-54.077
0.007,0.064,0.409,18.066,-100.403,-78.735
0.001,-0.226,0.320,34.058,-98.450,-86.670
0.095,-0.958,0.145,42.175,-72.388,-66.406
0.124,-1.301,0.074,46.753,5.981,-2.319
0.068,-1.738,-0.001,45.776,44.739,19.104
0.073,-1.842,0.033,44.800,80.139,-11.963
0.381,-1.934,0.251,45.288,57.861,-64.941
0.643,-1.903,0.382,41.748,-50.964,-168.091
1.025,-1.666,0.544,32.898,-94.360,-179.810
1.092,-1.488,0.566,4.639,-70.007,-113.892
0.910,-1.252,0.474,-9.521,-10.132,-56.641
0.725,-1.233,0.379,-20.935,94.971,38.818
0.337,-1.192,0.251,-19.531,102.661,56.458
0.179,-1.164,0.227,-11.475,32.959,42.908
0.044,-1.101,0.251,-8.545,-18.433,26.611
0.052,-1.072,0.306,-12.756,-95.886,6.104
0.137,-0.938,0.510,-19.409,-110.840,6.531
0.174,-0.745,0.661,-34.668,-94.849,21.790
0.212,-0.611,0.704,-39.001,-68.420,28.564
0.310,-0.343,0.749,-40.161,-5.249,35.278
0.347,-0.271,0.755,-37.781,24.902,43.091
0.402,-0.189,0.782,-34.241,20.447,46.021
0.399,-0.118,0.828,-15.747,9.216,46.570
0.407,0.025,0.932,-4.578,16.296,44.312
0.434,0.085,0.980,4.761,36.621,39.551
0.477,0.190,1.037,1.465,37.109,36.804
0.503,0.224,1.042,-5.615,29.907,31.372
0.606,0.240,1.036,-20.020,6.348,12.207
0.659,0.238,1.037,-24.170,-8.606,-0.183
0.702,0.250,1.039,-23.499,-7.507,-0.916
0.715,0.259,1.021,-23.560,-0.183,-0.793
0.757,0.277,0.960,-28.320,12.878,-1.587
0.746,0.295,0.943,-29.175,9.399,-1.282
0.641,0.321,0.929,-22.034,-2.258,4.089
0.597,0.311,0.929,-16.663,-2.502,6.836
0.560,0.260,0.966,-8.911,-3.723,3.052
0.549,0.227,0.984,-7.996,-19.409,-9.644
0.551,0.158,0.994,-9.521,-25.208,-15.442
0.555,0.132,0.988,-12.268,-23.621,-17.456
0.544,0.080,0.964,-12.268,-17.273,-13.672
0.543,0.062,0.953,-9.705,-0.977,-4.883
0.555,0.045,0.942,-7.812,4.517,-2.136
0.558,0.027,0.934,-5.798,7.690,-4.822
0.600,-0.027,0.904,-5.005,5.188,-10.315
0.632,-0.055,0.891,-3.723,-6.592,-19.409
0.656,-0.116,0.883,-4.028,-11.169,-20.020
0.654,-0.136,0.887,-5.554,-13.550,-16.541
0.624,-0.142,0.891,-6.592,-11.230,-12.878
0.603,-0.143,0.887,-8.362,-0.671,-3.906
0.562,-0.130,0.876,-9.338,4.578,-0.916
0.548,-0.124,0.866,-11.780,6.714,-0.244
0.532,-0.124,0.832,-12.207,4.456,-1.221
0.529,-0.118,0.822,-10.559,-0.061,-2.625
0.513,-0.099,0.817,-8.972,-1.038,-2.075
0.504,-0.098,0.815,-5.615,2.563,0.427
0.500,-0.098,0.817,-3.601,6.042,1.282
0.494,-0.101,0.816,-0.854,10.071,0.854
0.505,-0.106,0.816,0.671,4.333,-4.517
0.531,-0.120,0.829,1.648,-0.854,-7.263
0.540,-0.128,0.839,2.625,-3.723,-7.568
0.547,-0.131,0.854,2.869,-1.404,-5.981
0.544,-0.130,0.854,2.319,4.517,-2.747
0.546,-0.138,0.844,2.075,5.615,-2.380
0.549,-0.140,0.850,3.601,1.770,-4.211
0.556,-0.140,0.869,3.967,0.244,-4.883
0.561,-0.140,0.873,2.686,0.671,-3.906
0.563,-0.136,0.875,2.014,1.465,-2.563
0.555,-0.132,0.877,1.038,2.258,-0.305
0.548,-0.134,0.881,1.160,1.770,0.183
0.547,-0.147,0.894,1.831,0.610,-0.549
0.546,-0.154,0.897,1.526,-0.427,-1.282
0.542,-0.164,0.879,-0.061,-1.282,-1.648
0.543,-0.169,0.862,-0.488,0.305,0.122
0.546,-0.160,0.853,0.305,0.366,1.404
0.539,-0.147,0.859,0.244,-0.488,2.502
0.527,-0.129,0.857,-0.916,-0.916,1.953
0.521,-0.121,0.847,-2.380,-1.099,0.671
0.513,-0.112,0.824,-2.014,0.244,0.427
0.517,-0.118,0.818,-0.366,2.686,0.427
0.518,-0.127,0.811,0.366,2.930,0.488
0.518,-0.131,0.808,1.404,3.479,0.488
0.520,-0.140,0.810,2.319,3.235,0.122
0.517,-0.142,0.816,4.456,3.357,-0.793
0.527,-0.157,0.834,5.066,3.235,-1.770
0.550,-0.170,0.851,4.883,-1.892,-5.066
0.555,-0.171,0.857,3.662,-4.456,-5.188
0.550,-0.175,0.863,3.052,-2.869,-3.052
0.546,-0.177,0.862,1.648,1.404,1.587
0.533,-0.169,0.849,0.793,1.953,2.869
0.524,-0.160,0.839,-0.122,0.488,2.930
0.510,-0.149,0.830,0.122,-0.305,2.197
0.507,-0.149,0.834,0.732,-0.732,0.916
0.511,-0.149,0.840,0.427,-0.305,0.427
0.514,-0.145,0.837,-0.732,1.038,-0.366
0.526,-0.138,0.826,-0.732,1.648,-0.977
0.538,-0.141,0.824,0.244,2.258,-2.136
0.558,-0.150,0.829,0.488,1.892,-2.197
0.569,-0.155,0.830,-0.427,1.404,-1.404
0.576,-0.149,0.828,-1.404,2.014,1.526
0.564,-0.127,0.825,-1.099,3.357,3.296
0.558,-0.120,0.833,-0.183,5.920,5.188
0.556,-0.116,0.862,-0.427,5.737,5.432
0.554,-0.109,0.880,-1.953,3.662,5.859
0.553,-0.072,0.921,-2.930,4.517,6.165
0.563,-0.036,0.944,-4.578,10.925,8.362
0.585,0.076,0.992,-4.761,14.832,10.071
0.599,0.150,1.016,-2.869,21.790,11.841
0.657,0.309,1.077,-0.244,23.315,10.803

0.880,0.539,1.253,13.855,-18.127,-4.395
0.836,0.553,1.242,16.724,5.188,13.062
0.750,0.532,1.168,18.921,23.743,23.010
0.720,0.502,1.123,24.780,47.302,31.860
0.677,0.444,1.033,25.574,43.396,26.367
0.652,0.437,0.992,18.188,3.784,-0.854
0.607,0.403,0.889,13.611,-20.996,-15.198
0.583,0.358,0.841,15.808,-36.987,-24.475
0.511,0.161,0.725,22.461,-18.860,-15.747
0.458,0.048,0.674,33.752,44.128,6.165
0.381,-0.183,0.608,26.978,56.702,7.324
0.359,-0.292,0.579,-4.150,9.949,-5.798
0.318,-0.474,0.438,-12.085,-19.775,-8.118
0.280,-0.579,0.359,-5.432,-9.766,4.272
0.213,-0.801,0.258,3.723,25.879,12.817
0.208,-0.916,0.243,15.076,91.064,12.756
0.316,-1.138,0.276,13.611,97.229,0.977
0.393,-1.223,0.302,2.258,44.678,-33.386
0.573,-1.283,0.363,0.305,0.610,-52.246
0.766,-1.287,0.466,8.179,-66.467,-74.890
0.810,-1.286,0.517,12.268,-75.134,-71.045
0.788,-1.294,0.573,13.489,-47.729,-37.781
0.737,-1.288,0.570,2.808,-5.127,10.498
0.558,-1.226,0.521,-3.662,6.348,30.762
0.469,-1.181,0.497,-8.667,1.831,43.701
0.370,-1.116,0.487,-8.423,-13.611,37.415
0.367,-1.115,0.485,-14.099,-61.584,17.029
0.391,-1.109,0.520,-20.081,-81.177,10.437
0.388,-1.020,0.567,-30.212,-77.759,17.212
0.342,-0.738,0.637,-32.654,-56.152,27.832
0.326,-0.602,0.638,-31.128,-4.700,42.969
0.329,-0.329,0.633,-26.184,13.000,45.166
0.329,-0.197,0.660,-11.597,28.381,47.546
0.332,0.026,0.745,-5.920,28.564,49.316
0.348,0.130,0.793,0.000,21.606,44.312
0.391,0.332,0.906,-0.793,16.541,36.560
0.483,0.422,0.986,-7.385,8.972,20.020
0.535,0.465,1.027,-9.644,11.353,6.836
0.600,0.580,1.103,-11.108,17.395,4.883
0.612,0.610,1.113,-20.569,30.090,7.568
0.645,0.622,1.095,-24.658,31.555,4.456
0.682,0.609,1.083,-26.550,21.790,-11.719
0.740,0.531,1.041,-27.039,11.902,-19.409
0.761,0.473,1.004,-28.076,-14.832,-26.978
0.781,0.388,0.951,-25.940,-29.297,-27.161
0.758,0.372,0.952,-16.785,-42.175,-18.555
0.678,0.307,0.954,-11.475,-34.424,-10.254
0.643,0.259,0.944,-1.526,-0.244,6.165
0.609,0.175,0.910,0.244,13.123,10.742
0.599,0.143,0.891,-1.526,7.568,5.737
0.601,0.100,0.874,-2.380,-7.263,-2.625
0.601,0.079,0.879,-1.465,-35.278,-15.747
0.591,0.029,0.907,-0.427,-42.053,-17.578
0.588,0.000,0.923,1.709,-39.551,-14.526
0.575,-0.054,0.929,1.343,-31.006,-11.169
0.585,-0.085,0.909,-2.930,-14.038,-6.348
0.594,-0.127,0.867,-4.272,-12.939,-5.005
0.588,-0.131,0.863,-4.028,-18.494,-2.625
0.562,-0.118,0.857,-4.150,-17.700,-1.099
0.537,-0.099,0.833,-3.845,-6.287,3.235
0.529,-0.094,0.822,-3.174,0.305,5.432
0.510,-0.083,0.815,-1.404,5.737,6.653
0.503,-0.080,0.819,-0.366,0.488,1.648
0.519,-0.086,0.840,-0.366,-4.028,-2.075
0.530,-0.091,0.849,-2.258,-9.033,-4.456
0.533,-0.095,0.859,-2.502,-6.958,-2.747
0.528,-0.093,0.862,-1.648,2.686,1.160
0.529,-0.089,0.865,-1.831,5.859,1.587
0.526,-0.085,0.864,-4.028,4.700,0.610
0.526,-0.075,0.845,-5.127,2.380,-0.732
0.531,-0.069,0.832,-3.784,-0.549,-2.991
0.544,-0.069,0.822,-1.099,0.427,-3.235
0.548,-0.072,0.831,3.784,3.906,-2.441
0.554,-0.079,0.851,4.272,4.089,-2.563
0.554,-0.079,0.855,2.136,1.465,-2.563
0.551,-0.082,0.844,1.099,0.916,-1.831
0.553,-0.081,0.841,0.977,0.671,-0.122
0.538,-0.070,0.852,1.709,0.122,0.366
0.533,-0.070,0.857,3.357,0.244,-0.427
0.537,-0.079,0.867,4.456,-0.183,-1.099
0.542,-0.086,0.876,4.639,-1.221,-1.282
0.547,-0.097,0.883,3.540,-1.709,-0.977
0.541,-0.097,0.877,2.014,-0.122,0.305
0.540,-0.101,0.865,1.831,1.465,0.977
0.536,-0.100,0.864,1.099,0.671,2.136
0.522,-0.087,0.851,0.427,0.549,2.319
0.527,-0.088,0.843,1.099,1.465,2.319
0.521,-0.085,0.849,1.892,0.732,2.686
0.506,-0.079,0.852,2.319,2.441,2.808
0.500,-0.084,0.855,2.319,2.991,1.587
0.506,-0.093,0.860,2.747,-1.099,-1.770
0.524,-0.110,0.876,3.174,-2.502,-2.869
0.534,-0.118,0.888,2.075,-2.014,-2.869
0.532,-0.120,0.895,0.183,-1.038,-1.648
0.523,-0.113,0.884,-2.991,3.113,1.160
0.516,-0.096,0.857,-3.296,4.333,1.282
0.516,-0.090,0.846,-1.770,3.601,-0.122
0.533,-0.085,0.836,-0.549,3.662,-0.977
0.543,-0.088,0.839,0.977,2.258,-1.831
0.559,-0.099,0.851,1.160,0.488,-1.953
0.561,-0.103,0.857,0.671,-2.258,-1.892
0.551,-0.107,0.870,0.305,-2.686,-1.404
0.544,-0.107,0.873,-0.488,-1.221,-0.366
0.538,-0.105,0.870,-0.916,-0.122,0.366
0.535,-0.102,0.866,-1.709,1.343,2.441
0.525,-0.090,0.856,-1.770,1.953,2.747
0.521,-0.087,0.853,-0.732,1.343,1.465
0.517,-0.085,0.858,-0.061,0.427,0.610
0.520,-0.089,0.862,0.061,-0.977,-1.343
0.533,-0.097,0.865,-0.244,-0.977,-1.404
0.536,-0.097,0.863,-1.221,0.916,0.671
0.531,-0.090,0.857,-1.221,2.380,1.465
0.534,-0.084,0.857,-0.854,2.441,0.366
0.536,-0.086,0.853,-0.793,-1.404,-2.075
0.543,-0.089,0.850,-0.305,-2.075,-2.747
0.547,-0.091,0.851,-0.366,0.244,-1.404
0.544,-0.086,0.846,-0.610,1.587,0.000
0.540,-0.081,0.843,-0.488,3.052,1.465
0.534,-0.080,0.842,-0.488,2.441,1.099

0.933,0.633,1.431,17.639,9.216,-6.165
1.092,0.874,1.578,26.123,0.366,-13.977
1.137,1.003,1.600,26.367,8.789,-11.047
1.148,1.207,1.507,24.292,22.766,-2.197
1.095,1.237,1.405,22.766,43.152,30.029
0.866,1.177,1.174,26.306,40.405,44.067
0.703,1.124,1.071,36.926,9.033,41.931
0.376,1.009,0.898,41.748,-15.442,25.391
0.214,0.906,0.795,52.307,-53.955,-18.616
-0.096,0.491,0.549,59.326,-53.345,-39.978
-0.155,-0.220,0.223,66.772,-22.461,-68.420
-0.112,-0.643,0.064,50.171,-5.981,-58.472
-0.089,-1.355,-0.185,37.170,-5.066,-39.734
-0.082,-1.649,-0.289,18.921,13.977,-9.521
0.013,-2.037,-0.350,23.499,32.715,-13.794
0.166,-2.146,-0.270,62.988,47.119,-79.407
0.728,-2.185,0.134,86.792,20.020,-127.441
0.998,-2.067,0.385,104.065,-85.632,-181.946
1.179,-1.631,0.699,87.219,-115.906,-168.091
1.069,-1.438,0.696,27.405,-59.998,-64.148
0.676,-1.435,0.437,2.136,-1.892,0.061
0.439,-1.499,0.293,-22.766,58.350,79.468
0.031,-1.541,0.109,-25.269,48.706,92.896
-0.092,-1.495,0.078,-17.090,-11.047,89.050
-0.204,-1.363,0.156,-13.794,-43.091,79.895
-0.217,-1.241,0.262,-25.635,-79.468,67.078
-0.207,-0.875,0.482,-35.645,-77.026,66.223
-0.152,-0.699,0.564,-47.913,-28.076,64.331
0.081,-0.391,0.705,-51.025,3.296,64.148
0.178,-0.243,0.755,-48.645,43.396,70.618
0.290,0.033,0.825,-43.762,55.664,73.242
0.338,0.129,0.852,-34.302,70.557,65.613
0.465,0.234,0.921,-30.640,66.956,55.054
0.612,0.292,1.025,-30.334,34.119,29.053
0.711,0.293,1.076,-34.302,12.451,16.785
0.850,0.331,1.175,-39.490,-19.531,2.319
0.844,0.380,1.214,-39.124,-24.170,4.639
0.804,0.429,1.228,-41.809,-11.292,14.038
0.754,0.429,1.141,-45.593,-1.953,11.475
0.745,0.379,1.030,-46.631,-6.470,-3.540
0.716,0.366,1.009,-41.382,-19.592,-7.324
0.586,0.326,1.033,-25.879,-41.565,-3.418
0.514,0.314,1.056,-20.325,-42.786,0.244
0.438,0.302,1.047,-19.653,-31.250,1.343
0.441,0.284,1.017,-23.560,-22.278,-8.484
0.469,0.237,0.964,-24.353,-23.743,-13.550
0.485,0.229,0.953,-20.447,-33.997,-16.418
0.487,0.216,0.965,-16.418,-34.546,-15.808
0.477,0.202,0.976,-8.911,-20.264,-13.306
0.474,0.155,0.974,-6.531,-10.315,-10.986
0.480,0.113,0.952,-5.859,5.920,-6.287
0.501,0.036,0.907,-5.676,8.301,-5.127
0.521,0.002,0.896,-3.601,-2.930,-5.127
0.537,-0.046,0.895,-2.686,-9.155,-5.554
0.528,-0.054,0.898,-2.502,-8.911,-2.014
0.487,-0.060,0.899,-3.052,-3.784,1.465
0.471,-0.061,0.896,-3.784,4.883,3.784
0.475,-0.067,0.886,-4.089,5.127,2.258
0.486,-0.074,0.880,-3.662,0.610,-0.671
0.495,-0.077,0.885,-2.991,-0.488,-0.854
0.500,-0.081,0.889,-2.808,1.648,-0.916
0.513,-0.093,0.884,-2.502,1.770,-1.038
0.515,-0.096,0.887,-1.282,0.977,-0.977
0.512,-0.094,0.895,-1.587,1.526,-0.366
0.504,-0.087,0.886,-2.625,5.310,2.686
0.489,-0.082,0.862,-2.258,7.446,3.967
0.483,-0.078,0.860,-0.610,5.920,4.089
0.460,-0.061,0.859,-0.427,4.517,3.479
0.465,-0.075,0.861,0.183,4.028,0.916
0.470,-0.081,0.870,1.099,2.014,-1.038
0.469,-0.084,0.876,2.380,0.244,-3.784
0.476,-0.098,0.876,2.747,2.502,-3.967
0.497,-0.113,0.879,3.113,2.197,-3.418
0.510,-0.109,0.893,2.930,-0.610,-3.479
0.500,-0.102,0.889,2.441,1.526,-2.258
0.484,-0.105,0.883,2.808,5.066,-1.282
0.486,-0.110,0.883,2.380,5.310,-1.526
0.479,-0.097,0.872,1.526,3.113,-2.319
0.472,-0.090,0.863,1.587,3.174,-2.563
0.484,-0.099,0.869,2.563,3.296,-2.686
0.486,-0.097,0.876,3.723,0.183,-3.479
0.477,-0.089,0.881,3.784,0.916,-3.235
0.485,-0.094,0.885,4.150,3.906,-2.747
0.494,-0.092,0.891,4.089,2.808,-3.113
0.490,-0.088,0.889,3.662,2.319,-3.967
0.499,-0.098,0.887,3.906,3.113,-4.150
0.509,-0.103,0.889,4.211,1.282,-4.395
0.513,-0.106,0.895,3.784,0.427,-4.150
0.519,-0.111,0.896,2.563,1.160,-3.174
0.516,-0.106,0.892,1.892,1.160,-1.648
0.512,-0.107,0.884,1.404,1.526,-0.977
0.512,-0.106,0.885,1.160,1.221,-0.671
0.499,-0.093,0.881,1.099,0.549,-0.427
0.497,-0.096,0.875,1.343,2.197,-0.061
0.499,-0.101,0.883,1.892,1.099,-0.061
0.493,-0.094,0.888,1.465,-0.488,-0.183
0.482,-0.093,0.873,1.099,0.977,0.122
0.486,-0.098,0.871,2.319,2.380,0.366
0.491,-0.096,0.882,2.625,1.099,-0.610
0.491,-0.096,0.880,1.770,-1.404,-2.808
0.496,-0.104,0.876,1.892,-1.404,-3.296
0.502,-0.110,0.879,2.441,-1.160,-3.662
0.506,-0.115,0.882,2.197,-1.160,-3.357
0.508,-0.116,0.882,1.099,0.061,-1.709
0.510,-0.115,0.882,0.427,0.244,-0.916
0.509,-0.114,0.880,-0.366,-0.732,-0.549
0.507,-0.110,0.879,-0.244,-0.916,-0.671
0.506,-0.109,0.880,0.061,-0.183,-0.183
0.499,-0.103,0.876,-0.061,0.427,0.183
0.499,-0.100,0.870,-0.305,0.549,0.000
0.501,-0.105,0.866,-0.244,-0.305,-0.305
0.500,-0.110,0.868,-0.488,-1.465,-0.305
0.495,-0.113,0.873,-0.610,-1.587,-0.427
0.493,-0.111,0.876,-0.793,-1.099,-0.549
0.494,-0.106,0.878,-0.977,-0.366,-0.183
0.492,-0.104,0.875,-1.160,1.038,0.671
0.491,-0.100,0.871,-1.160,1.160,0.549
0.491,-0.100,0.869,-1.221,-0.244,-0.366
0.497,-0.101,0.868,-0.916,-1.038,-0.916

0.822,0.577,1.333,18.555,4.089,-14.038
0.829,0.735,1.420,27.100,-3.601,-4.822
0.793,0.792,1.430,29.907,-4.028,4.456
0.708,0.880,1.344,29.663,1.282,19.836
0.661,0.913,1.281,28.931,0.854,21.851
0.571,0.972,1.173,35.828,-11.292,15.198
0.529,1.005,1.132,58.044,-29.419,-4.639
0.462,1.000,1.097,71.411,-35.278,-14.648
0.382,0.929,1.066,79.468,-40.039,-25.085
0.135,0.527,0.959,76.721,-45.105,-29.419
0.036,0.272,0.874,60.181,-48.950,-35.889
-0.104,-0.342,0.608,43.274,-47.180,-33.203
-0.286,-0.996,0.259,5.737,-28.015,-17.456
-0.363,-1.326,0.035,-16.296,30.640,-29.968
-0.250,-1.941,-0.363,-12.756,68.542,-56.885
-0.034,-2.150,-0.440,28.931,106.445,-129.089
0.524,-2.278,-0.203,57.495,91.492,-167.114
0.806,-2.191,0.077,81.421,-4.761,-221.863
1.073,-1.763,0.515,71.472,-54.626,-220.154
0.988,-1.570,0.544,43.335,-58.167,-146.851
0.646,-1.516,0.390,37.170,-20.386,-94.727
0.489,-1.591,0.305,27.344,23.865,-13.672
0.264,-1.690,0.232,14.771,9.521,14.526
0.012,-1.623,0.286,-29.053,-62.073,68.604
-0.124,-1.544,0.300,-79.285,-101.501,104.309
-0.285,-1.284,0.274,-95.642,-91.736,107.971
-0.304,-1.097,0.272,-99.731,-33.203,106.628
-0.204,-0.690,0.388,-90.637,-2.930,103.943
-0.100,-0.508,0.487,-69.458,24.841,92.346
0.094,-0.199,0.644,-60.547,25.574,86.914
0.186,-0.063,0.710,-40.100,31.677,76.721
0.396,0.146,0.853,-29.785,37.598,70.679
0.470,0.232,0.923,-16.968,38.147,64.941
0.526,0.386,1.052,-14.221,33.386,64.209
0.558,0.431,1.117,-15.869,23.376,57.800
0.628,0.511,1.199,-21.179,16.907,51.208
0.642,0.575,1.194,-30.090,2.808,33.569
0.658,0.629,1.154,-28.564,-2.258,26.062
0.656,0.596,1.153,-23.071,-6.287,20.874
0.643,0.553,1.166,-8.179,-13.367,16.602
0.593,0.419,1.175,-3.845,-17.212,17.456
0.572,0.315,1.160,-7.812,-32.288,20.386
0.524,0.163,1.106,-13.489,-44.495,20.996
0.484,0.135,1.077,-21.301,-56.030,21.484
0.352,0.161,1.047,-21.667,-50.415,23.315
0.285,0.170,1.036,-15.564,-27.832,27.649
0.226,0.126,1.025,-11.108,-16.907,26.245
0.234,0.097,1.029,-8.484,-6.287,15.869
0.274,0.083,1.044,-11.597,-7.874,9.705
0.287,0.091,1.045,-19.836,-13.062,0.244
0.330,0.078,1.012,-20.447,-11.353,-2.197
0.373,0.052,0.999,-9.705,-1.343,-3.479
0.455,-0.007,1.017,-2.563,3.357,-3.235
0.478,-0.032,1.039,1.831,7.874,-2.563
0.476,-0.061,1.043,-1.953,7.507,-1.404
0.462,-0.061,1.013,-11.658,4.089,1.221
0.437,-0.055,0.942,-12.207,0.671,2.441
0.419,-0.058,0.916,-10.132,0.427,2.747
0.422,-0.069,0.914,-7.263,2.197,3.967
0.396,-0.064,0.917,-7.202,3.723,6.226
0.377,-0.054,0.907,-8.179,5.615,8.301
0.345,-0.042,0.881,-9.338,5.554,7.568
0.342,-0.044,0.876,-8.118,3.052,4.456
0.377,-0.067,0.882,-3.540,-2.075,-3.174
0.405,-0.088,0.893,-1.038,-2.686,-5.249
0.435,-0.115,0.926,1.465,-1.099,-4.272
0.435,-0.115,0.935,0.854,-0.244,-2.869
0.430,-0.115,0.932,-2.686,1.343,-1.282
0.413,-0.111,0.920,-3.967,1.404,-1.099
0.401,-0.100,0.918,-4.333,1.099,-1.343
0.385,-0.083,0.908,-4.272,2.441,-1.526
0.385,-0.079,0.903,-4.089,4.883,-2.014
0.387,-0.073,0.894,-3.540,3.845,-3.113
0.392,-0.072,0.895,-1.465,0.671,-6.165
0.414,-0.082,0.908,-0.549,0.000,-7.385
0.437,-0.094,0.917,-0.366,1.099,-7.385
0.443,-0.096,0.913,-1.160,2.502,-5.981
0.448,-0.094,0.885,-2.197,6.165,-2.625
0.445,-0.092,0.879,-1.465,7.019,-1.343
0.428,-0.081,0.901,1.343,4.578,-0.671
0.428,-0.082,0.906,1.282,2.808,-1.648
0.424,-0.077,0.907,0.488,-0.488,-3.113
0.419,-0.073,0.914,0.916,0.122,-2.686
0.416,-0.079,0.925,0.977,1.221,-2.380
0.421,-0.082,0.924,1.282,1.709,-2.380
0.434,-0.082,0.925,2.380,0.916,-2.869
0.435,-0.082,0.925,2.563,0.793,-2.625
0.435,-0.083,0.926,2.258,1.709,-0.671
0.430,-0.080,0.929,1.587,1.953,0.244
0.422,-0.075,0.926,0.427,1.526,0.977
0.411,-0.068,0.916,0.549,1.282,0.671
0.409,-0.066,0.913,1.526,0.305,-1.038
0.413,-0.066,0.913,2.319,-0.732,-1.953
0.420,-0.070,0.916,3.601,-1.953,-3.357
0.437,-0.087,0.923,3.906,-1.770,-3.479
0.438,-0.095,0.929,4.089,-0.916,-1.465
0.430,-0.099,0.941,3.418,0.000,-0.305
0.428,-0.098,0.935,0.488,2.014,1.221
0.418,-0.082,0.914,-0.610,2.686,2.014
0.411,-0.074,0.908,-0.671,3.357,1.587
0.411,-0.071,0.901,-0.122,2.319,-0.122
0.414,-0.073,0.901,0.488,0.610,-2.075
0.422,-0.084,0.902,1.526,-0.610,-3.906
0.421,-0.088,0.902,1.953,0.366,-3.540
0.419,-0.089,0.904,2.808,2.136,-2.808
0.428,-0.098,0.910,2.563,1.526,-2.808
0.431,-0.095,0.913,1.465,-0.916,-2.380
0.428,-0.086,0.906,1.343,0.122,-2.014
0.432,-0.089,0.903,2.563,3.052,-0.793
0.430,-0.082,0.905,2.869,2.502,-0.549
0.422,-0.080,0.901,2.747,1.526,-1.099
0.420,-0.091,0.897,3.235,1.221,-1.831
0.422,-0.093,0.902,3.967,-1.587,-2.869
0.420,-0.094,0.910,4.211,-1.648,-3.052
0.425,-0.100,0.912,5.615,0.610,-3.418
0.439,-0.113,0.928,5.981,0.366,-3.601
0.437,-0.112,0.933,4.517,-0.793,-2.563
0.438,-0.113,0.931,3.540,-0.366,-1.892
0.436,-0.111,0.928,2.747,0.122,-1.099

0.693,0.818,1.462,42.786,27.222,-18.311
0.800,0.952,1.584,56.274,9.338,-28.625
0.790,0.991,1.532,58.289,0.183,-23.193
0.745,0.973,1.465,54.321,3.174,-2.991
0.607,0.933,1.329,52.979,1.526,7.446
0.514,0.925,1.257,52.795,-6.287,16.113
0.274,0.890,1.119,52.063,-13.000,13.184
0.134,0.831,1.041,55.237,-31.799,-4.211
-0.089,0.468,0.841,61.035,-35.278,-19.165
-0.120,0.143,0.728,63.477,-31.982,-38.208
-0.094,-0.614,0.462,53.040,-34.851,-32.166
-0.117,-0.945,0.326,20.996,-35.889,-12.878
-0.198,-1.487,0.070,5.859,-18.250,-12.939
-0.196,-1.727,-0.045,-11.963,44.800,-38.574
0.035,-2.103,-0.151,-8.545,66.772,-64.758
0.288,-2.189,-0.086,26.794,54.993,-133.484
0.832,-2.107,0.296,46.387,30.151,-158.264
1.019,-1.960,0.487,54.504,9.644,-162.903
1.130,-1.761,0.606,26.367,23.254,-111.267
1.070,-1.426,0.599,1.892,49.377,-63.232
0.921,-1.389,0.518,-31.677,61.951,31.250
0.473,-1.374,0.340,-37.842,32.715,55.725
0.269,-1.337,0.278,-38.452,-49.011,53.955
0.007,-1.310,0.231,-36.987,-77.271,38.208
-0.033,-1.319,0.239,-30.212,-98.450,6.165
0.013,-1.216,0.368,-26.001,-94.604,-0.854
0.049,-1.059,0.486,-26.489,-60.669,15.137
0.066,-0.728,0.661,-33.142,-32.654,30.701
0.077,-0.565,0.700,-46.082,26.123,48.767
0.121,-0.278,0.711,-47.485,44.800,50.537
0.143,-0.159,0.712,-40.344,51.025,43.884
0.238,0.024,0.768,-36.133,40.527,38.635
0.285,0.093,0.813,-35.217,8.667,31.433
0.344,0.234,0.888,-35.645,-2.869,29.297
0.341,0.325,0.923,-28.748,-0.366,26.245
0.385,0.467,1.022,-24.719,9.949,25.879
0.414,0.492,1.086,-21.179,18.005,27.283
0.420,0.508,1.183,-18.005,17.700,31.250
0.419,0.524,1.203,-20.203,14.282,28.381
0.437,0.531,1.199,-26.001,8.789,7.812
0.539,0.435,1.147,-26.489,4.578,-5.005
0.595,0.349,1.117,-20.325,-12.146,-17.578
0.637,0.219,1.115,-13.550,-19.653,-13.062
0.626,0.188,1.151,-2.991,-13.245,7.507
0.529,0.161,1.200,-4.822,-0.916,17.151
0.464,0.118,1.149,-13.672,13.733,18.921
0.454,0.116,1.103,-16.235,11.658,12.512
0.449,0.113,1.048,-22.827,2.197,0.977
0.457,0.081,0.955,-23.010,-1.282,-1.770
0.455,0.061,0.932,-12.817,-1.282,0.427
0.425,0.030,0.937,-5.432,3.174,4.395
0.414,0.016,0.948,2.258,12.878,8.667
0.416,-0.016,0.949,1.099,12.451,7.568
0.428,-0.049,0.934,-3.357,3.784,1.831
0.473,-0.122,0.915,-3.296,-0.671,-1.221
0.489,-0.152,0.921,-0.854,-6.226,-3.113
0.495,-0.183,0.937,-0.610,-7.202,-1.648
0.491,-0.186,0.938,-1.831,-5.615,2.563
0.472,-0.174,0.930,-2.869,-2.502,5.432
0.441,-0.154,0.906,-4.333,6.592,10.803
0.424,-0.139,0.896,-4.517,9.888,11.780
0.406,-0.118,0.882,-5.615,6.470,7.507
0.405,-0.116,0.877,-5.981,1.038,3.784
0.410,-0.119,0.882,-3.906,-4.089,-0.793
0.414,-0.122,0.886,-2.136,-1.587,-0.916
0.417,-0.127,0.881,-1.099,5.554,0.549
0.415,-0.123,0.874,-1.221,6.470,0.671
0.413,-0.114,0.863,-0.671,5.127,-0.305
0.415,-0.110,0.863,1.343,4.028,-2.441
0.431,-0.115,0.871,2.625,2.625,-3.723
0.442,-0.119,0.882,4.944,-0.610,-5.371
0.464,-0.136,0.906,5.371,-1.160,-5.432
0.470,-0.145,0.919,4.456,-0.854,-3.906
0.459,-0.143,0.925,3.540,0.854,-2.380
0.452,-0.141,0.915,1.587,6.104,-0.427
0.451,-0.140,0.901,1.099,5.493,-1.099
0.452,-0.139,0.903,1.160,-0.366,-3.662
0.458,-0.137,0.904,1.160,-0.793,-3.723
0.459,-0.137,0.901,2.258,4.456,-0.549
0.456,-0.135,0.904,2.380,6.226,0.549
0.453,-0.132,0.901,0.488,2.136,-0.488
0.448,-0.132,0.887,0.122,-0.488,-1.404
0.451,-0.133,0.885,1.770,-0.122,-1.282
0.447,-0.133,0.890,2.563,1.343,-0.549
0.443,-0.135,0.887,3.174,1.587,-0.305
0.444,-0.141,0.879,3.845,0.244,-0.732
0.443,-0.147,0.882,6.165,-0.671,-0.061
0.441,-0.153,0.894,6.592,0.244,0.793
0.434,-0.150,0.895,6.165,1.404,1.282
0.423,-0.150,0.896,5.676,0.916,0.305
0.425,-0.151,0.900,5.005,-2.319,-2.563
0.431,-0.153,0.903,4.761,-3.296,-3.296
0.439,-0.158,0.904,5.005,-0.610,-1.770
0.446,-0.160,0.920,5.249,1.221,-0.244
0.440,-0.156,0.922,3.967,4.272,0.793
0.440,-0.158,0.910,2.991,4.456,-0.061
0.449,-0.162,0.906,1.709,-1.282,-3.357
0.462,-0.162,0.902,1.343,-3.418,-4.150
0.464,-0.163,0.900,1.099,0.793,-2.441
0.473,-0.166,0.896,0.977,2.808,-0.977
0.469,-0.160,0.891,0.061,2.319,1.343
0.458,-0.149,0.878,-0.122,2.075,1.526
0.453,-0.142,0.876,1.038,1.953,1.343
0.436,-0.133,0.880,1.770,2.319,1.038
0.437,-0.138,0.881,2.502,2.319,-0.488
0.442,-0.147,0.887,2.686,1.465,-1.160
0.444,-0.148,0.886,2.258,1.770,-2.075
0.454,-0.153,0.875,2.136,2.075,-2.136
0.457,-0.156,0.876,3.052,0.488,-2.014
0.464,-0.161,0.888,3.296,-0.183,-1.892
0.467,-0.167,0.894,2.991,-0.305,-0.854
0.468,-0.170,0.905,2.869,0.122,0.061
0.467,-0.166,0.906,1.770,1.221,0.916
0.465,-0.159,0.903,1.404,0.916,0.610
0.465,-0.157,0.904,1.221,-0.366,0.000
0.466,-0.161,0.906,1.099,-0.488,0.244
0.465,-0.163,0.906,1.038,0.000,1.221
0.454,-0.161,0.907,0.793,-0.061,1.587
0.448,-0.160,0.903,-0.244,-0.183,2.136

0.690,0.762,1.526,35.706,1.709,-11.292
0.770,0.969,1.558,44.678,13.733,-12.085
0.802,1.045,1.521,49.866,33.875,-3.296
0.787,1.070,1.387,50.293,34.668,1.404
0.722,1.027,1.307,49.255,1.221,8.789
0.505,0.837,1.182,49.866,-28.748,8.911
0.226,0.510,1.004,50.537,-69.336,-0.671
0.123,0.335,0.929,45.654,-58.594,-13.550
0.037,-0.078,0.733,38.269,-52.856,-6.470
-0.007,-0.331,0.582,12.451,-41.138,4.517
-0.120,-0.828,0.297,-3.479,-24.353,-12.695
-0.180,-1.288,0.081,-5.676,-10.437,-23.804
-0.143,-1.546,-0.004,0.000,37.537,-46.265
0.066,-1.916,-0.010,8.057,57.983,-62.500
0.223,-1.996,0.076,31.311,43.823,-115.112
0.650,-2.021,0.380,44.739,13.489,-143.494
0.844,-1.932,0.541,49.927,-18.311,-161.133
1.006,-1.546,0.668,34.607,3.540,-138.550
0.979,-1.386,0.629,-11.902,78.552,-49.377
0.765,-1.332,0.415,-29.236,88.196,-5.005
0.591,-1.345,0.305,-43.213,33.569,36.682
0.296,-1.408,0.189,-43.579,-5.920,37.659
0.207,-1.455,0.176,-32.959,-66.833,34.119
0.090,-1.370,0.253,-25.085,-81.360,35.217
0.018,-1.084,0.424,-19.653,-64.453,48.706
0.008,-0.917,0.503,-28.992,-5.066,63.110
0.045,-0.545,0.629,-34.424,19.897,62.683
0.072,-0.371,0.682,-43.152,40.833,55.054
0.164,-0.133,0.760,-48.401,40.100,46.326
0.290,0.022,0.811,-48.889,37.415,42.603
0.340,0.077,0.841,-45.044,31.250,43.762
0.357,0.183,0.907,-42.053,29.480,47.852
0.363,0.245,0.937,-36.316,31.494,45.654
0.378,0.364,0.981,-32.288,32.349,38.208
0.391,0.393,0.990,-25.696,28.198,20.996
0.458,0.386,0.994,-23.804,24.048,11.963
0.502,0.354,0.987,-21.667,10.559,-3.235
0.596,0.326,0.981,-20.447,0.854,-7.751
0.615,0.328,0.986,-14.343,-15.381,-9.766
0.583,0.313,1.014,-9.705,-17.944,-7.507
0.548,0.304,1.040,0.488,-11.047,-0.549
0.519,0.257,1.078,3.357,-3.174,0.427
0.530,0.229,1.090,1.892,4.272,-8.911
0.613,0.183,1.111,-1.282,-3.723,-15.503
0.644,0.159,1.116,-6.958,-28.381,-19.470
0.612,0.118,1.108,-6.775,-30.396,-15.137
0.570,0.098,1.097,-1.770,-1.709,0.854
0.495,0.057,1.050,-1.404,17.151,7.874
0.467,0.035,1.014,-6.592,30.151,10.925
0.439,0.020,0.947,-8.545,23.376,6.042
0.453,0.015,0.928,-9.277,2.808,-7.996
0.505,-0.028,0.909,-9.216,-4.456,-11.536
0.514,-0.052,0.903,-7.202,-4.028,-7.080
0.536,-0.086,0.893,-5.554,2.319,-2.502
0.545,-0.097,0.884,-3.357,12.878,4.456
0.543,-0.113,0.875,-3.418,12.024,4.822
0.535,-0.118,0.873,-4.578,-2.930,-1.831
0.531,-0.147,0.885,-4.517,-11.780,-5.920
0.534,-0.167,0.898,-4.761,-18.860,-7.812
0.532,-0.196,0.914,-4.944,-17.151,-5.493
0.526,-0.204,0.914,-5.188,-7.935,2.380
0.493,-0.186,0.898,-5.493,-1.953,6.653
0.472,-0.171,0.882,-5.432,7.263,12.390
0.435,-0.145,0.846,-4.578,8.545,12.329
0.427,-0.142,0.835,-1.709,3.052,6.897
0.432,-0.144,0.843,-0.061,-2.014,3.113
0.440,-0.146,0.852,1.770,-6.287,-1.892
0.454,-0.156,0.854,2.258,-3.723,-1.709
0.455,-0.153,0.854,2.869,-0.122,-0.183
0.441,-0.145,0.857,4.272,3.479,2.441
0.435,-0.151,0.862,4.700,3.479,2.563
0.438,-0.159,0.869,4.578,-0.366,-0.427
0.449,-0.160,0.878,4.211,-3.601,-2.441
0.457,-0.166,0.881,2.808,-3.540,-3.967
0.472,-0.166,0.888,2.258,-1.953,-3.540
0.469,-0.161,0.883,2.075,3.357,-1.526
0.488,-0.169,0.877,2.075,5.554,-1.343
0.505,-0.169,0.878,1.465,1.282,-2.075
0.503,-0.154,0.863,1.343,0.000,-1.343
0.497,-0.153,0.860,3.113,4.456,2.441
0.492,-0.152,0.874,4.150,3.845,2.991
0.481,-0.144,0.878,4.028,-1.465,1.343
0.452,-0.135,0.876,3.601,-0.671,1.282
0.451,-0.146,0.877,4.517,2.258,0.488
0.466,-0.157,0.891,5.005,-0.427,-1.221
0.464,-0.155,0.893,4.578,-3.662,-2.014
0.461,-0.156,0.887,4.395,-0.305,-0.854
0.466,-0.159,0.890,5.005,4.395,0.427
0.469,-0.161,0.890,4.883,3.845,0.000
0.476,-0.165,0.884,3.540,2.136,-2.319
0.499,-0.161,0.875,2.930,0.183,-3.601
0.504,-0.159,0.867,2.686,-1.709,-3.906
0.515,-0.175,0.861,3.052,-0.671,-2.869
0.519,-0.179,0.864,3.723,0.244,0.183
0.506,-0.168,0.860,3.601,0.671,1.709
0.500,-0.165,0.858,3.601,2.319,3.601
0.488,-0.158,0.861,4.028,2.014,3.601
0.478,-0.157,0.867,5.066,0.488,2.319
0.466,-0.160,0.889,5.127,-0.122,1.465
0.465,-0.164,0.895,3.723,-0.549,0.122
0.470,-0.166,0.896,3.113,0.244,-0.244
0.477,-0.167,0.896,1.648,1.526,-0.488
0.496,-0.173,0.894,0.732,0.488,-0.671
0.502,-0.174,0.890,0.000,-0.977,-0.671
0.511,-0.179,0.885,0.122,-0.244,-0.244
0.515,-0.181,0.885,-0.366,0.488,1.282
0.511,-0.171,0.876,-0.671,0.061,1.892
0.504,-0.164,0.871,0.000,0.305,2.563
0.500,-0.165,0.876,0.427,-0.244,2.747
0.491,-0.168,0.882,0.854,-1.831,3.113
0.471,-0.169,0.886,0.854,-1.953,3.845
0.475,-0.175,0.884,0.122,-0.549,3.662
0.479,-0.176,0.883,-0.977,-1.831,3.052
0.475,-0.169,0.878,-1.465,-2.258,2.991
0.474,-0.165,0.874,-2.258,0.061,2.869
0.467,-0.156,0.862,-2.319,1.404,3.113
0.466,-0.155,0.856,-1.648,2.502,3.418
0.469,-0.159,0.852,-0.549,1.709,3.113
0.470,-0.160,0.856,1.465,-0.854,1.709

0.819,0.712,1.351,29.358,27.954,-9.399
0.944,0.917,1.644,58.472,-33.020,-24.170
0.972,1.059,1.833,60.852,-51.941,-27.649
0.939,1.109,1.812,55.359,-48.950,-21.179
0.868,1.174,1.625,52.246,-34.485,-11.597
0.701,1.156,1.378,50.842,-20.996,13.062
0.538,1.105,1.254,56.763,-31.799,27.039
0.105,0.763,0.991,62.805,-35.461,24.048
-0.108,0.509,0.843,75.989,-24.048,-6.287
-0.267,-0.135,0.541,73.975,-19.043,-18.982
-0.249,-0.541,0.376,44.678,-13.245,-24.841
-0.188,-1.341,0.022,22.522,-6.165,-18.860
-0.194,-1.668,-0.165,-22.339,27.100,-17.944
-0.122,-2.188,-0.459,-33.875,47.546,-39.612
0.081,-2.373,-0.506,-5.981,39.856,-131.897
0.858,-2.471,-0.157,32.593,-4.150,-181.519
1.202,-2.288,0.209,91.064,-118.713,-217.407
1.271,-1.667,0.690,81.604,-131.470,-191.528
0.990,-1.450,0.656,11.719,-16.235,-56.396
0.291,-1.396,0.339,-15.137,58.777,20.020
0.008,-1.391,0.228,-29.053,108.398,102.844
-0.265,-1.308,0.165,-28.687,81.482,103.455
-0.239,-1.283,0.176,-30.090,-24.353,60.181
-0.113,-1.290,0.201,-31.677,-76.416,39.795
-0.069,-1.269,0.215,-33.691,-106.995,33.325
-0.038,-1.103,0.313,-30.396,-83.618,43.030
-0.037,-0.980,0.399,-19.165,-12.878,64.636
0.034,-0.740,0.593,-18.677,11.353,70.862
0.107,-0.504,0.745,-28.076,24.475,77.881
0.123,-0.365,0.795,-33.997,36.194,84.595
0.183,-0.074,0.844,-35.522,48.096,83.862
0.231,0.054,0.842,-37.170,57.556,78.552
0.339,0.231,0.834,-40.161,56.458,57.251
0.372,0.284,0.853,-39.551,47.852,46.448
0.403,0.328,0.911,-31.677,26.428,32.715
0.427,0.325,0.952,-19.043,8.606,18.982
0.558,0.262,1.042,-14.771,-0.488,12.695
0.622,0.240,1.087,-10.132,-21.912,10.315
0.673,0.252,1.160,-8.240,-26.978,10.681
0.672,0.262,1.178,-6.165,-15.198,9.338
0.630,0.238,1.172,-6.470,-5.127,10.315
0.600,0.219,1.154,-5.676,5.432,10.803
0.545,0.220,1.170,-5.371,3.479,8.301
0.469,0.219,1.177,-10.071,-12.268,4.578
0.436,0.210,1.168,-15.564,-26.733,-5.127
0.406,0.185,1.156,-15.747,-33.569,-12.878
0.411,0.160,1.149,-14.648,-38.818,-20.874
0.434,0.098,1.115,-14.343,-32.471,-18.066
0.446,0.072,1.075,-11.475,-4.761,-3.479
0.461,0.017,0.993,-7.751,9.644,4.089
0.462,-0.011,0.971,-3.601,18.616,7.935
0.455,-0.063,0.955,0.305,10.071,0.916
0.453,-0.086,0.953,-2.747,-13.794,-13.794
0.464,-0.140,0.941,-7.019,-19.043,-19.897
0.472,-0.174,0.930,-15.808,-18.860,-26.794
0.502,-0.234,0.913,-15.442,-17.883,-25.146
0.511,-0.240,0.905,-8.362,-10.010,-10.498
0.477,-0.226,0.894,-5.737,-4.028,-1.953
0.449,-0.219,0.887,-2.197,5.249,8.301
0.407,-0.211,0.870,-0.549,7.446,8.240
0.395,-0.213,0.872,-0.793,3.357,0.061
0.400,-0.215,0.875,-2.380,-3.235,-5.554
0.424,-0.229,0.867,-3.235,-15.625,-11.475
0.439,-0.238,0.872,-0.183,-12.390,-5.554
0.419,-0.236,0.894,2.441,-5.554,0.610
0.404,-0.232,0.900,6.653,9.644,7.996
0.383,-0.217,0.908,6.348,10.742,8.118
0.385,-0.202,0.901,0.793,-0.305,1.831
0.390,-0.193,0.892,-3.418,-5.981,-3.479
0.397,-0.194,0.867,-2.563,-4.150,-3.357
0.407,-0.194,0.863,2.258,0.977,-1.831
0.404,-0.193,0.871,5.432,3.052,-0.366
0.397,-0.195,0.884,6.042,2.563,-0.488
0.398,-0.198,0.889,5.066,-1.526,-1.526
0.396,-0.200,0.899,4.578,-3.601,-1.404
0.391,-0.196,0.904,4.028,-3.601,-0.793
0.383,-0.202,0.909,4.028,-2.441,-1.343
0.386,-0.206,0.914,4.639,-1.709,-4.150
0.404,-0.218,0.917,4.333,-2.380,-5.371
0.415,-0.223,0.916,2.869,-5.127,-5.493
0.427,-0.223,0.912,2.563,-3.479,-3.296
0.428,-0.224,0.915,2.197,-1.343,-1.953
0.420,-0.224,0.917,0.977,-0.305,0.183
0.405,-0.215,0.912,0.793,-1.160,0.122
0.399,-0.210,0.906,0.244,-2.380,-1.526
0.399,-0.208,0.895,0.183,-2.502,-2.441
0.396,-0.205,0.890,0.732,-2.258,-2.014
0.393,-0.206,0.885,2.014,-0.061,-0.122
0.387,-0.206,0.888,3.174,1.526,0.549
0.384,-0.206,0.894,3.418,1.465,-0.061
0.392,-0.207,0.900,2.869,-1.038,-1.465
0.395,-0.206,0.904,2.563,-4.089,-2.747
0.389,-0.210,0.921,2.625,-2.747,-2.319
0.391,-0.217,0.929,2.686,0.854,-2.258
0.402,-0.228,0.939,1.953,0.732,-2.686
0.408,-0.230,0.937,-0.488,-2.625,-3.296
0.416,-0.222,0.930,-1.282,-3.601,-3.235
0.416,-0.219,0.923,-2.014,-0.793,-0.549
0.409,-0.217,0.904,-1.465,2.197,0.916
0.405,-0.209,0.900,0.183,4.089,1.526
0.397,-0.204,0.895,0.244,1.953,0.427
0.397,-0.206,0.896,-0.183,-3.235,-2.136
0.401,-0.211,0.904,-0.305,-3.601,-2.380
0.401,-0.211,0.902,-0.183,-0.244,-0.916
0.399,-0.210,0.892,0.122,1.099,-0.305
0.395,-0.212,0.900,0.610,-1.099,-1.099
0.397,-0.216,0.903,0.610,-3.357,-1.892
0.400,-0.216,0.909,0.977,-2.197,-1.038
0.400,-0.215,0.911,0.793,2.991,1.709
0.393,-0.212,0.905,0.000,3.662,2.197
0.384,-0.205,0.899,-0.977,-0.488,0.366
0.388,-0.200,0.893,-0.671,-2.686,-1.526
0.394,-0.203,0.896,1.038,-3.357,-2.563
0.406,-0.210,0.903,2.014,-1.526,-1.770
0.408,-0.214,0.903,2.380,1.709,0.366
0.401,-0.216,0.901,2.319,1.343,0.732
0.401,-0.216,0.902,1.770,-1.160,-0.183
0.399,-0.218,0.906,1.343,-1.953,-0.305
0.397,-0.221,0.907,1.526,-1.221,-0.061
